subj,session,trial,rt,object_response,category,condition,imagename
hycoclip,1,1,NaN,truck,airplane,NaN,airplane1-bicycle2.png
hycoclip,1,2,NaN,truck,airplane,NaN,airplane1-chair2.png
hycoclip,1,3,NaN,truck,airplane,NaN,airplane1-clock1.png
hycoclip,1,4,NaN,truck,airplane,NaN,airplane1-elephant1.png
hycoclip,1,5,NaN,truck,airplane,NaN,airplane10-airplane1.png
hycoclip,1,6,NaN,truck,airplane,NaN,airplane10-bear3.png
hycoclip,1,7,NaN,truck,airplane,NaN,airplane10-boat3.png
hycoclip,1,8,NaN,truck,airplane,NaN,airplane10-car3.png
hycoclip,1,9,NaN,truck,airplane,NaN,airplane10-cat2.png
hycoclip,1,10,NaN,truck,airplane,NaN,airplane10-dog3.png
hycoclip,1,11,NaN,truck,airplane,NaN,airplane10-elephant1.png
hycoclip,1,12,NaN,truck,airplane,NaN,airplane10-knife3.png
hycoclip,1,13,NaN,truck,airplane,NaN,airplane10-oven2.png
hycoclip,1,14,NaN,truck,airplane,NaN,airplane10-truck1.png
hycoclip,1,15,NaN,truck,airplane,NaN,airplane2-bear1.png
hycoclip,1,16,NaN,truck,airplane,NaN,airplane2-bicycle1.png
hycoclip,1,17,NaN,truck,airplane,NaN,airplane2-bird3.png
hycoclip,1,18,NaN,truck,airplane,NaN,airplane2-bottle1.png
hycoclip,1,19,NaN,truck,airplane,NaN,airplane2-cat1.png
hycoclip,1,20,NaN,truck,airplane,NaN,airplane2-dog1.png
hycoclip,1,21,NaN,truck,airplane,NaN,airplane3-airplane2.png
hycoclip,1,22,NaN,truck,airplane,NaN,airplane3-car1.png
hycoclip,1,23,NaN,truck,airplane,NaN,airplane3-cat1.png
hycoclip,1,24,NaN,truck,airplane,NaN,airplane3-chair3.png
hycoclip,1,25,NaN,truck,airplane,NaN,airplane3-clock1.png
hycoclip,1,26,NaN,truck,airplane,NaN,airplane3-dog1.png
hycoclip,1,27,NaN,truck,airplane,NaN,airplane3-elephant1.png
hycoclip,1,28,NaN,truck,airplane,NaN,airplane3-keyboard2.png
hycoclip,1,29,NaN,truck,airplane,NaN,airplane3-oven1.png
hycoclip,1,30,NaN,truck,airplane,NaN,airplane4-airplane1.png
hycoclip,1,31,NaN,truck,airplane,NaN,airplane4-bear3.png
hycoclip,1,32,NaN,truck,airplane,NaN,airplane4-bicycle2.png
hycoclip,1,33,NaN,truck,airplane,NaN,airplane4-bird3.png
hycoclip,1,34,NaN,truck,airplane,NaN,airplane4-boat3.png
hycoclip,1,35,NaN,truck,airplane,NaN,airplane4-bottle1.png
hycoclip,1,36,NaN,truck,airplane,NaN,airplane4-car1.png
hycoclip,1,37,NaN,truck,airplane,NaN,airplane4-cat3.png
hycoclip,1,38,NaN,truck,airplane,NaN,airplane4-dog2.png
hycoclip,1,39,NaN,truck,airplane,NaN,airplane4-elephant1.png
hycoclip,1,40,NaN,truck,airplane,NaN,airplane4-keyboard3.png
hycoclip,1,41,NaN,truck,airplane,NaN,airplane4-knife1.png
hycoclip,1,42,NaN,truck,airplane,NaN,airplane4-truck2.png
hycoclip,1,43,NaN,truck,airplane,NaN,airplane5-bear2.png
hycoclip,1,44,NaN,truck,airplane,NaN,airplane5-bicycle1.png
hycoclip,1,45,NaN,truck,airplane,NaN,airplane5-bird2.png
hycoclip,1,46,NaN,truck,airplane,NaN,airplane5-boat3.png
hycoclip,1,47,NaN,truck,airplane,NaN,airplane5-bottle3.png
hycoclip,1,48,NaN,truck,airplane,NaN,airplane5-chair3.png
hycoclip,1,49,NaN,truck,airplane,NaN,airplane5-dog3.png
hycoclip,1,50,NaN,truck,airplane,NaN,airplane5-knife1.png
hycoclip,1,51,NaN,truck,airplane,NaN,airplane5-oven3.png
hycoclip,1,52,NaN,truck,airplane,NaN,airplane6-bear3.png
hycoclip,1,53,NaN,truck,airplane,NaN,airplane6-bottle2.png
hycoclip,1,54,NaN,truck,airplane,NaN,airplane6-chair3.png
hycoclip,1,55,NaN,truck,airplane,NaN,airplane6-keyboard3.png
hycoclip,1,56,NaN,truck,airplane,NaN,airplane6-knife1.png
hycoclip,1,57,NaN,truck,airplane,NaN,airplane7-airplane3.png
hycoclip,1,58,NaN,truck,airplane,NaN,airplane7-bird3.png
hycoclip,1,59,NaN,truck,airplane,NaN,airplane7-boat2.png
hycoclip,1,60,NaN,truck,airplane,NaN,airplane7-bottle3.png
hycoclip,1,61,NaN,truck,airplane,NaN,airplane7-car1.png
hycoclip,1,62,NaN,truck,airplane,NaN,airplane7-cat3.png
hycoclip,1,63,NaN,truck,airplane,NaN,airplane7-clock3.png
hycoclip,1,64,NaN,truck,airplane,NaN,airplane7-keyboard1.png
hycoclip,1,65,NaN,truck,airplane,NaN,airplane7-truck1.png
hycoclip,1,66,NaN,truck,airplane,NaN,airplane8-bicycle3.png
hycoclip,1,67,NaN,truck,airplane,NaN,airplane8-bird1.png
hycoclip,1,68,NaN,truck,airplane,NaN,airplane8-chair1.png
hycoclip,1,69,NaN,truck,airplane,NaN,airplane8-clock2.png
hycoclip,1,70,NaN,truck,airplane,NaN,airplane8-elephant3.png
hycoclip,1,71,NaN,truck,airplane,NaN,airplane8-oven2.png
hycoclip,1,72,NaN,truck,airplane,NaN,airplane8-truck3.png
hycoclip,1,73,NaN,truck,airplane,NaN,airplane9-airplane2.png
hycoclip,1,74,NaN,truck,airplane,NaN,airplane9-boat1.png
hycoclip,1,75,NaN,truck,airplane,NaN,airplane9-car2.png
hycoclip,1,76,NaN,truck,airplane,NaN,airplane9-clock1.png
hycoclip,1,77,NaN,truck,airplane,NaN,airplane9-keyboard2.png
hycoclip,1,78,NaN,truck,airplane,NaN,airplane9-knife3.png
hycoclip,1,79,NaN,truck,airplane,NaN,airplane9-oven2.png
hycoclip,1,80,NaN,truck,airplane,NaN,airplane9-truck1.png
hycoclip,1,81,NaN,truck,bear,NaN,bear1-airplane3.png
hycoclip,1,82,NaN,truck,bear,NaN,bear1-bear3.png
hycoclip,1,83,NaN,truck,bear,NaN,bear1-bicycle3.png
hycoclip,1,84,NaN,truck,bear,NaN,bear1-bird2.png
hycoclip,1,85,NaN,truck,bear,NaN,bear1-chair2.png
hycoclip,1,86,NaN,truck,bear,NaN,bear1-clock2.png
hycoclip,1,87,NaN,truck,bear,NaN,bear1-elephant1.png
hycoclip,1,88,NaN,truck,bear,NaN,bear10-bear2.png
hycoclip,1,89,NaN,truck,bear,NaN,bear10-bottle1.png
hycoclip,1,90,NaN,truck,bear,NaN,bear10-car2.png
hycoclip,1,91,NaN,truck,bear,NaN,bear10-cat2.png
hycoclip,1,92,NaN,truck,bear,NaN,bear10-chair2.png
hycoclip,1,93,NaN,truck,bear,NaN,bear10-clock1.png
hycoclip,1,94,NaN,truck,bear,NaN,bear10-elephant1.png
hycoclip,1,95,NaN,truck,bear,NaN,bear10-keyboard3.png
hycoclip,1,96,NaN,truck,bear,NaN,bear10-knife2.png
hycoclip,1,97,NaN,truck,bear,NaN,bear10-oven1.png
hycoclip,1,98,NaN,truck,bear,NaN,bear10-truck1.png
hycoclip,1,99,NaN,truck,bear,NaN,bear2-airplane1.png
hycoclip,1,100,NaN,truck,bear,NaN,bear2-bird3.png
hycoclip,1,101,NaN,truck,bear,NaN,bear2-car2.png
hycoclip,1,102,NaN,truck,bear,NaN,bear2-cat2.png
hycoclip,1,103,NaN,truck,bear,NaN,bear2-dog1.png
hycoclip,1,104,NaN,truck,bear,NaN,bear2-elephant1.png
hycoclip,1,105,NaN,truck,bear,NaN,bear2-keyboard2.png
hycoclip,1,106,NaN,truck,bear,NaN,bear2-knife2.png
hycoclip,1,107,NaN,truck,bear,NaN,bear2-oven1.png
hycoclip,1,108,NaN,truck,bear,NaN,bear3-airplane1.png
hycoclip,1,109,NaN,truck,bear,NaN,bear3-bicycle2.png
hycoclip,1,110,NaN,truck,bear,NaN,bear3-bird3.png
hycoclip,1,111,NaN,truck,bear,NaN,bear3-car2.png
hycoclip,1,112,NaN,truck,bear,NaN,bear3-cat1.png
hycoclip,1,113,NaN,truck,bear,NaN,bear3-chair2.png
hycoclip,1,114,NaN,truck,bear,NaN,bear3-dog3.png
hycoclip,1,115,NaN,truck,bear,NaN,bear3-keyboard2.png
hycoclip,1,116,NaN,truck,bear,NaN,bear3-truck3.png
hycoclip,1,117,NaN,truck,bear,NaN,bear4-boat2.png
hycoclip,1,118,NaN,truck,bear,NaN,bear4-car3.png
hycoclip,1,119,NaN,truck,bear,NaN,bear4-cat3.png
hycoclip,1,120,NaN,truck,bear,NaN,bear4-clock3.png
hycoclip,1,121,NaN,truck,bear,NaN,bear4-elephant2.png
hycoclip,1,122,NaN,truck,bear,NaN,bear4-keyboard3.png
hycoclip,1,123,NaN,truck,bear,NaN,bear4-knife1.png
hycoclip,1,124,NaN,truck,bear,NaN,bear4-oven2.png
hycoclip,1,125,NaN,truck,bear,NaN,bear4-truck3.png
hycoclip,1,126,NaN,truck,bear,NaN,bear5-airplane3.png
hycoclip,1,127,NaN,truck,bear,NaN,bear5-bicycle3.png
hycoclip,1,128,NaN,truck,bear,NaN,bear5-bird1.png
hycoclip,1,129,NaN,truck,bear,NaN,bear5-boat2.png
hycoclip,1,130,NaN,truck,bear,NaN,bear5-bottle1.png
hycoclip,1,131,NaN,truck,bear,NaN,bear5-chair1.png
hycoclip,1,132,NaN,truck,bear,NaN,bear5-oven3.png
hycoclip,1,133,NaN,truck,bear,NaN,bear6-bear1.png
hycoclip,1,134,NaN,truck,bear,NaN,bear6-bird2.png
hycoclip,1,135,NaN,truck,bear,NaN,bear6-boat3.png
hycoclip,1,136,NaN,truck,bear,NaN,bear6-bottle3.png
hycoclip,1,137,NaN,truck,bear,NaN,bear6-car2.png
hycoclip,1,138,NaN,truck,bear,NaN,bear6-cat3.png
hycoclip,1,139,NaN,truck,bear,NaN,bear6-chair1.png
hycoclip,1,140,NaN,truck,bear,NaN,bear6-clock1.png
hycoclip,1,141,NaN,truck,bear,NaN,bear7-bear2.png
hycoclip,1,142,NaN,truck,bear,NaN,bear7-bicycle2.png
hycoclip,1,143,NaN,truck,bear,NaN,bear7-clock1.png
hycoclip,1,144,NaN,truck,bear,NaN,bear7-dog3.png
hycoclip,1,145,NaN,truck,bear,NaN,bear7-oven3.png
hycoclip,1,146,NaN,truck,bear,NaN,bear7-truck1.png
hycoclip,1,147,NaN,truck,bear,NaN,bear8-airplane1.png
hycoclip,1,148,NaN,truck,bear,NaN,bear8-bear1.png
hycoclip,1,149,NaN,truck,bear,NaN,bear8-bicycle3.png
hycoclip,1,150,NaN,truck,bear,NaN,bear8-boat2.png
hycoclip,1,151,NaN,truck,bear,NaN,bear8-bottle1.png
hycoclip,1,152,NaN,truck,bear,NaN,bear8-dog1.png
hycoclip,1,153,NaN,truck,bear,NaN,bear8-elephant2.png
hycoclip,1,154,NaN,truck,bear,NaN,bear8-knife3.png
hycoclip,1,155,NaN,truck,bear,NaN,bear8-truck3.png
hycoclip,1,156,NaN,clock,bear,NaN,bear9-boat2.png
hycoclip,1,157,NaN,truck,bear,NaN,bear9-bottle2.png
hycoclip,1,158,NaN,truck,bear,NaN,bear9-dog1.png
hycoclip,1,159,NaN,truck,bear,NaN,bear9-keyboard3.png
hycoclip,1,160,NaN,truck,bear,NaN,bear9-knife2.png
hycoclip,1,161,NaN,truck,bicycle,NaN,bicycle1-airplane2.png
hycoclip,1,162,NaN,truck,bicycle,NaN,bicycle1-bear1.png
hycoclip,1,163,NaN,truck,bicycle,NaN,bicycle1-bicycle3.png
hycoclip,1,164,NaN,truck,bicycle,NaN,bicycle1-bird1.png
hycoclip,1,165,NaN,truck,bicycle,NaN,bicycle1-boat3.png
hycoclip,1,166,NaN,truck,bicycle,NaN,bicycle1-bottle3.png
hycoclip,1,167,NaN,truck,bicycle,NaN,bicycle1-chair1.png
hycoclip,1,168,NaN,truck,bicycle,NaN,bicycle1-clock3.png
hycoclip,1,169,NaN,truck,bicycle,NaN,bicycle1-dog3.png
hycoclip,1,170,NaN,truck,bicycle,NaN,bicycle1-elephant2.png
hycoclip,1,171,NaN,truck,bicycle,NaN,bicycle1-knife3.png
hycoclip,1,172,NaN,truck,bicycle,NaN,bicycle1-oven1.png
hycoclip,1,173,NaN,truck,bicycle,NaN,bicycle1-truck1.png
hycoclip,1,174,NaN,truck,bicycle,NaN,bicycle10-airplane2.png
hycoclip,1,175,NaN,truck,bicycle,NaN,bicycle10-boat3.png
hycoclip,1,176,NaN,truck,bicycle,NaN,bicycle10-clock2.png
hycoclip,1,177,NaN,truck,bicycle,NaN,bicycle10-dog3.png
hycoclip,1,178,NaN,truck,bicycle,NaN,bicycle10-elephant2.png
hycoclip,1,179,NaN,truck,bicycle,NaN,bicycle2-bicycle1.png
hycoclip,1,180,NaN,truck,bicycle,NaN,bicycle2-bird3.png
hycoclip,1,181,NaN,truck,bicycle,NaN,bicycle2-bottle1.png
hycoclip,1,182,NaN,truck,bicycle,NaN,bicycle2-car2.png
hycoclip,1,183,NaN,truck,bicycle,NaN,bicycle2-dog1.png
hycoclip,1,184,NaN,truck,bicycle,NaN,bicycle2-keyboard2.png
hycoclip,1,185,NaN,truck,bicycle,NaN,bicycle2-knife2.png
hycoclip,1,186,NaN,truck,bicycle,NaN,bicycle3-bird1.png
hycoclip,1,187,NaN,truck,bicycle,NaN,bicycle3-elephant2.png
hycoclip,1,188,NaN,truck,bicycle,NaN,bicycle3-keyboard1.png
hycoclip,1,189,NaN,truck,bicycle,NaN,bicycle3-oven3.png
hycoclip,1,190,NaN,truck,bicycle,NaN,bicycle3-truck3.png
hycoclip,1,191,NaN,truck,bicycle,NaN,bicycle4-airplane1.png
hycoclip,1,192,NaN,truck,bicycle,NaN,bicycle4-bicycle3.png
hycoclip,1,193,NaN,truck,bicycle,NaN,bicycle4-boat1.png
hycoclip,1,194,NaN,truck,bicycle,NaN,bicycle4-bottle1.png
hycoclip,1,195,NaN,truck,bicycle,NaN,bicycle4-car2.png
hycoclip,1,196,NaN,truck,bicycle,NaN,bicycle4-cat1.png
hycoclip,1,197,NaN,truck,bicycle,NaN,bicycle4-chair2.png
hycoclip,1,198,NaN,truck,bicycle,NaN,bicycle4-clock3.png
hycoclip,1,199,NaN,truck,bicycle,NaN,bicycle4-keyboard3.png
hycoclip,1,200,NaN,truck,bicycle,NaN,bicycle4-knife3.png
hycoclip,1,201,NaN,truck,bicycle,NaN,bicycle4-oven3.png
hycoclip,1,202,NaN,truck,bicycle,NaN,bicycle4-truck3.png
hycoclip,1,203,NaN,truck,bicycle,NaN,bicycle5-bear1.png
hycoclip,1,204,NaN,truck,bicycle,NaN,bicycle5-bottle3.png
hycoclip,1,205,NaN,truck,bicycle,NaN,bicycle5-car3.png
hycoclip,1,206,NaN,truck,bicycle,NaN,bicycle5-cat1.png
hycoclip,1,207,NaN,truck,bicycle,NaN,bicycle5-chair2.png
hycoclip,1,208,NaN,truck,bicycle,NaN,bicycle5-dog2.png
hycoclip,1,209,NaN,truck,bicycle,NaN,bicycle5-elephant1.png
hycoclip,1,210,NaN,truck,bicycle,NaN,bicycle5-keyboard3.png
hycoclip,1,211,NaN,truck,bicycle,NaN,bicycle5-oven3.png
hycoclip,1,212,NaN,truck,bicycle,NaN,bicycle6-airplane2.png
hycoclip,1,213,NaN,truck,bicycle,NaN,bicycle6-bicycle3.png
hycoclip,1,214,NaN,truck,bicycle,NaN,bicycle6-boat2.png
hycoclip,1,215,NaN,truck,bicycle,NaN,bicycle6-car2.png
hycoclip,1,216,NaN,truck,bicycle,NaN,bicycle6-cat1.png
hycoclip,1,217,NaN,truck,bicycle,NaN,bicycle6-dog2.png
hycoclip,1,218,NaN,truck,bicycle,NaN,bicycle7-bear2.png
hycoclip,1,219,NaN,truck,bicycle,NaN,bicycle7-bicycle2.png
hycoclip,1,220,NaN,truck,bicycle,NaN,bicycle7-cat1.png
hycoclip,1,221,NaN,truck,bicycle,NaN,bicycle7-clock3.png
hycoclip,1,222,NaN,truck,bicycle,NaN,bicycle7-elephant2.png
hycoclip,1,223,NaN,truck,bicycle,NaN,bicycle7-knife2.png
hycoclip,1,224,NaN,truck,bicycle,NaN,bicycle7-oven1.png
hycoclip,1,225,NaN,truck,bicycle,NaN,bicycle7-truck3.png
hycoclip,1,226,NaN,truck,bicycle,NaN,bicycle8-bear2.png
hycoclip,1,227,NaN,truck,bicycle,NaN,bicycle8-bird2.png
hycoclip,1,228,NaN,truck,bicycle,NaN,bicycle8-boat1.png
hycoclip,1,229,NaN,truck,bicycle,NaN,bicycle8-chair2.png
hycoclip,1,230,NaN,truck,bicycle,NaN,bicycle8-clock3.png
hycoclip,1,231,NaN,truck,bicycle,NaN,bicycle8-truck1.png
hycoclip,1,232,NaN,truck,bicycle,NaN,bicycle9-airplane2.png
hycoclip,1,233,NaN,truck,bicycle,NaN,bicycle9-bear1.png
hycoclip,1,234,NaN,truck,bicycle,NaN,bicycle9-bird3.png
hycoclip,1,235,NaN,truck,bicycle,NaN,bicycle9-bottle1.png
hycoclip,1,236,NaN,truck,bicycle,NaN,bicycle9-car1.png
hycoclip,1,237,NaN,truck,bicycle,NaN,bicycle9-cat3.png
hycoclip,1,238,NaN,truck,bicycle,NaN,bicycle9-chair1.png
hycoclip,1,239,NaN,truck,bicycle,NaN,bicycle9-keyboard3.png
hycoclip,1,240,NaN,truck,bicycle,NaN,bicycle9-knife3.png
hycoclip,1,241,NaN,truck,bird,NaN,bird1-airplane2.png
hycoclip,1,242,NaN,truck,bird,NaN,bird1-bear1.png
hycoclip,1,243,NaN,truck,bird,NaN,bird1-bicycle2.png
hycoclip,1,244,NaN,truck,bird,NaN,bird1-boat1.png
hycoclip,1,245,NaN,truck,bird,NaN,bird1-chair2.png
hycoclip,1,246,NaN,truck,bird,NaN,bird1-clock3.png
hycoclip,1,247,NaN,truck,bird,NaN,bird1-elephant2.png
hycoclip,1,248,NaN,truck,bird,NaN,bird1-keyboard3.png
hycoclip,1,249,NaN,truck,bird,NaN,bird1-knife3.png
hycoclip,1,250,NaN,truck,bird,NaN,bird1-oven1.png
hycoclip,1,251,NaN,truck,bird,NaN,bird1-truck1.png
hycoclip,1,252,NaN,truck,bird,NaN,bird10-bear2.png
hycoclip,1,253,NaN,truck,bird,NaN,bird10-bicycle1.png
hycoclip,1,254,NaN,truck,bird,NaN,bird10-bird2.png
hycoclip,1,255,NaN,truck,bird,NaN,bird10-cat1.png
hycoclip,1,256,NaN,truck,bird,NaN,bird10-chair1.png
hycoclip,1,257,NaN,truck,bird,NaN,bird10-clock1.png
hycoclip,1,258,NaN,truck,bird,NaN,bird10-elephant2.png
hycoclip,1,259,NaN,truck,bird,NaN,bird2-airplane3.png
hycoclip,1,260,NaN,truck,bird,NaN,bird2-bird2.png
hycoclip,1,261,NaN,truck,bird,NaN,bird2-car3.png
hycoclip,1,262,NaN,truck,bird,NaN,bird2-clock3.png
hycoclip,1,263,NaN,truck,bird,NaN,bird2-dog2.png
hycoclip,1,264,NaN,truck,bird,NaN,bird2-knife1.png
hycoclip,1,265,NaN,truck,bird,NaN,bird3-bear3.png
hycoclip,1,266,NaN,truck,bird,NaN,bird3-bird2.png
hycoclip,1,267,NaN,truck,bird,NaN,bird3-boat3.png
hycoclip,1,268,NaN,truck,bird,NaN,bird3-bottle2.png
hycoclip,1,269,NaN,truck,bird,NaN,bird3-cat1.png
hycoclip,1,270,NaN,truck,bird,NaN,bird3-dog1.png
hycoclip,1,271,NaN,truck,bird,NaN,bird3-knife3.png
hycoclip,1,272,NaN,truck,bird,NaN,bird3-oven1.png
hycoclip,1,273,NaN,truck,bird,NaN,bird3-truck3.png
hycoclip,1,274,NaN,truck,bird,NaN,bird4-airplane1.png
hycoclip,1,275,NaN,truck,bird,NaN,bird4-bicycle2.png
hycoclip,1,276,NaN,truck,bird,NaN,bird4-cat3.png
hycoclip,1,277,NaN,truck,bird,NaN,bird4-clock1.png
hycoclip,1,278,NaN,truck,bird,NaN,bird4-dog3.png
hycoclip,1,279,NaN,truck,bird,NaN,bird5-airplane3.png
hycoclip,1,280,NaN,truck,bird,NaN,bird5-bear3.png
hycoclip,1,281,NaN,truck,bird,NaN,bird5-bicycle1.png
hycoclip,1,282,NaN,truck,bird,NaN,bird5-bird1.png
hycoclip,1,283,NaN,truck,bird,NaN,bird5-car2.png
hycoclip,1,284,NaN,truck,bird,NaN,bird5-cat2.png
hycoclip,1,285,NaN,truck,bird,NaN,bird5-chair1.png
hycoclip,1,286,NaN,truck,bird,NaN,bird5-dog2.png
hycoclip,1,287,NaN,truck,bird,NaN,bird5-keyboard2.png
hycoclip,1,288,NaN,truck,bird,NaN,bird5-oven3.png
hycoclip,1,289,NaN,truck,bird,NaN,bird5-truck2.png
hycoclip,1,290,NaN,truck,bird,NaN,bird6-airplane2.png
hycoclip,1,291,NaN,truck,bird,NaN,bird6-boat2.png
hycoclip,1,292,NaN,truck,bird,NaN,bird6-bottle3.png
hycoclip,1,293,NaN,truck,bird,NaN,bird6-car3.png
hycoclip,1,294,NaN,truck,bird,NaN,bird6-elephant2.png
hycoclip,1,295,NaN,truck,bird,NaN,bird6-oven1.png
hycoclip,1,296,NaN,truck,bird,NaN,bird6-truck2.png
hycoclip,1,297,NaN,truck,bird,NaN,bird7-bird2.png
hycoclip,1,298,NaN,truck,bird,NaN,bird7-boat1.png
hycoclip,1,299,NaN,truck,bird,NaN,bird7-bottle1.png
hycoclip,1,300,NaN,truck,bird,NaN,bird7-car2.png
hycoclip,1,301,NaN,truck,bird,NaN,bird7-cat3.png
hycoclip,1,302,NaN,truck,bird,NaN,bird7-keyboard3.png
hycoclip,1,303,NaN,truck,bird,NaN,bird7-knife2.png
hycoclip,1,304,NaN,truck,bird,NaN,bird7-oven3.png
hycoclip,1,305,NaN,truck,bird,NaN,bird7-truck2.png
hycoclip,1,306,NaN,truck,bird,NaN,bird8-boat3.png
hycoclip,1,307,NaN,truck,bird,NaN,bird8-bottle1.png
hycoclip,1,308,NaN,truck,bird,NaN,bird8-car2.png
hycoclip,1,309,NaN,truck,bird,NaN,bird8-chair1.png
hycoclip,1,310,NaN,truck,bird,NaN,bird8-clock1.png
hycoclip,1,311,NaN,truck,bird,NaN,bird8-elephant1.png
hycoclip,1,312,NaN,truck,bird,NaN,bird8-keyboard2.png
hycoclip,1,313,NaN,truck,bird,NaN,bird8-knife2.png
hycoclip,1,314,NaN,truck,bird,NaN,bird9-bear3.png
hycoclip,1,315,NaN,truck,bird,NaN,bird9-bicycle3.png
hycoclip,1,316,NaN,truck,bird,NaN,bird9-bottle3.png
hycoclip,1,317,NaN,truck,bird,NaN,bird9-chair1.png
hycoclip,1,318,NaN,truck,bird,NaN,bird9-dog2.png
hycoclip,1,319,NaN,truck,bird,NaN,bird9-elephant2.png
hycoclip,1,320,NaN,truck,bird,NaN,bird9-keyboard1.png
hycoclip,1,321,NaN,truck,boat,NaN,boat1-bear1.png
hycoclip,1,322,NaN,truck,boat,NaN,boat1-bicycle2.png
hycoclip,1,323,NaN,truck,boat,NaN,boat1-bird3.png
hycoclip,1,324,NaN,truck,boat,NaN,boat1-car2.png
hycoclip,1,325,NaN,truck,boat,NaN,boat1-chair3.png
hycoclip,1,326,NaN,truck,boat,NaN,boat1-elephant3.png
hycoclip,1,327,NaN,truck,boat,NaN,boat1-keyboard3.png
hycoclip,1,328,NaN,truck,boat,NaN,boat1-oven1.png
hycoclip,1,329,NaN,truck,boat,NaN,boat1-truck3.png
hycoclip,1,330,NaN,truck,boat,NaN,boat10-bear3.png
hycoclip,1,331,NaN,truck,boat,NaN,boat10-boat3.png
hycoclip,1,332,NaN,truck,boat,NaN,boat10-cat1.png
hycoclip,1,333,NaN,truck,boat,NaN,boat10-oven1.png
hycoclip,1,334,NaN,truck,boat,NaN,boat10-truck1.png
hycoclip,1,335,NaN,truck,boat,NaN,boat2-airplane1.png
hycoclip,1,336,NaN,truck,boat,NaN,boat2-bear3.png
hycoclip,1,337,NaN,truck,boat,NaN,boat2-bird1.png
hycoclip,1,338,NaN,truck,boat,NaN,boat2-bottle2.png
hycoclip,1,339,NaN,truck,boat,NaN,boat2-keyboard1.png
hycoclip,1,340,NaN,truck,boat,NaN,boat2-oven3.png
hycoclip,1,341,NaN,truck,boat,NaN,boat3-airplane2.png
hycoclip,1,342,NaN,truck,boat,NaN,boat3-bicycle2.png
hycoclip,1,343,NaN,truck,boat,NaN,boat3-car3.png
hycoclip,1,344,NaN,truck,boat,NaN,boat3-cat3.png
hycoclip,1,345,NaN,truck,boat,NaN,boat3-chair3.png
hycoclip,1,346,NaN,truck,boat,NaN,boat3-clock3.png
hycoclip,1,347,NaN,truck,boat,NaN,boat3-dog3.png
hycoclip,1,348,NaN,truck,boat,NaN,boat3-keyboard2.png
hycoclip,1,349,NaN,truck,boat,NaN,boat4-bicycle3.png
hycoclip,1,350,NaN,truck,boat,NaN,boat4-bird1.png
hycoclip,1,351,NaN,truck,boat,NaN,boat4-boat3.png
hycoclip,1,352,NaN,truck,boat,NaN,boat4-bottle2.png
hycoclip,1,353,NaN,truck,boat,NaN,boat4-car3.png
hycoclip,1,354,NaN,truck,boat,NaN,boat4-chair2.png
hycoclip,1,355,NaN,truck,boat,NaN,boat4-dog2.png
hycoclip,1,356,NaN,truck,boat,NaN,boat4-elephant2.png
hycoclip,1,357,NaN,truck,boat,NaN,boat4-knife2.png
hycoclip,1,358,NaN,truck,boat,NaN,boat5-airplane1.png
hycoclip,1,359,NaN,truck,boat,NaN,boat5-bicycle3.png
hycoclip,1,360,NaN,truck,boat,NaN,boat5-boat3.png
hycoclip,1,361,NaN,truck,boat,NaN,boat5-car3.png
hycoclip,1,362,NaN,truck,boat,NaN,boat5-clock3.png
hycoclip,1,363,NaN,truck,boat,NaN,boat5-knife2.png
hycoclip,1,364,NaN,truck,boat,NaN,boat6-airplane2.png
hycoclip,1,365,NaN,truck,boat,NaN,boat6-bear1.png
hycoclip,1,366,NaN,truck,boat,NaN,boat6-bicycle2.png
hycoclip,1,367,NaN,truck,boat,NaN,boat6-bottle2.png
hycoclip,1,368,NaN,truck,boat,NaN,boat6-car1.png
hycoclip,1,369,NaN,truck,boat,NaN,boat6-cat1.png
hycoclip,1,370,NaN,truck,boat,NaN,boat6-clock2.png
hycoclip,1,371,NaN,truck,boat,NaN,boat6-dog1.png
hycoclip,1,372,NaN,truck,boat,NaN,boat6-elephant2.png
hycoclip,1,373,NaN,truck,boat,NaN,boat6-knife2.png
hycoclip,1,374,NaN,truck,boat,NaN,boat6-truck3.png
hycoclip,1,375,NaN,truck,boat,NaN,boat7-boat2.png
hycoclip,1,376,NaN,truck,boat,NaN,boat7-bottle1.png
hycoclip,1,377,NaN,truck,boat,NaN,boat7-cat3.png
hycoclip,1,378,NaN,truck,boat,NaN,boat7-chair1.png
hycoclip,1,379,NaN,truck,boat,NaN,boat7-clock3.png
hycoclip,1,380,NaN,truck,boat,NaN,boat7-elephant3.png
hycoclip,1,381,NaN,truck,boat,NaN,boat7-keyboard3.png
hycoclip,1,382,NaN,truck,boat,NaN,boat7-oven3.png
hycoclip,1,383,NaN,truck,boat,NaN,boat7-truck2.png
hycoclip,1,384,NaN,truck,boat,NaN,boat8-bird2.png
hycoclip,1,385,NaN,truck,boat,NaN,boat8-bottle1.png
hycoclip,1,386,NaN,truck,boat,NaN,boat8-dog3.png
hycoclip,1,387,NaN,truck,boat,NaN,boat8-elephant1.png
hycoclip,1,388,NaN,truck,boat,NaN,boat8-knife1.png
hycoclip,1,389,NaN,truck,boat,NaN,boat8-oven1.png
hycoclip,1,390,NaN,truck,boat,NaN,boat8-truck2.png
hycoclip,1,391,NaN,truck,boat,NaN,boat9-airplane2.png
hycoclip,1,392,NaN,truck,boat,NaN,boat9-bear3.png
hycoclip,1,393,NaN,truck,boat,NaN,boat9-bird1.png
hycoclip,1,394,NaN,truck,boat,NaN,boat9-boat3.png
hycoclip,1,395,NaN,truck,boat,NaN,boat9-cat3.png
hycoclip,1,396,NaN,truck,boat,NaN,boat9-chair2.png
hycoclip,1,397,NaN,truck,boat,NaN,boat9-clock1.png
hycoclip,1,398,NaN,truck,boat,NaN,boat9-dog2.png
hycoclip,1,399,NaN,truck,boat,NaN,boat9-keyboard2.png
hycoclip,1,400,NaN,truck,boat,NaN,boat9-knife2.png
hycoclip,1,401,NaN,truck,bottle,NaN,bottle1-bear1.png
hycoclip,1,402,NaN,truck,bottle,NaN,bottle1-bird3.png
hycoclip,1,403,NaN,truck,bottle,NaN,bottle1-car1.png
hycoclip,1,404,NaN,truck,bottle,NaN,bottle1-cat3.png
hycoclip,1,405,NaN,truck,bottle,NaN,bottle1-chair2.png
hycoclip,1,406,NaN,truck,bottle,NaN,bottle1-clock1.png
hycoclip,1,407,NaN,truck,bottle,NaN,bottle1-dog2.png
hycoclip,1,408,NaN,truck,bottle,NaN,bottle1-keyboard3.png
hycoclip,1,409,NaN,truck,bottle,NaN,bottle10-bear2.png
hycoclip,1,410,NaN,truck,bottle,NaN,bottle10-boat3.png
hycoclip,1,411,NaN,truck,bottle,NaN,bottle10-car1.png
hycoclip,1,412,NaN,truck,bottle,NaN,bottle10-clock2.png
hycoclip,1,413,NaN,truck,bottle,NaN,bottle10-dog1.png
hycoclip,1,414,NaN,truck,bottle,NaN,bottle10-truck3.png
hycoclip,1,415,NaN,truck,bottle,NaN,bottle2-bottle3.png
hycoclip,1,416,NaN,truck,bottle,NaN,bottle2-car2.png
hycoclip,1,417,NaN,truck,bottle,NaN,bottle2-chair3.png
hycoclip,1,418,NaN,truck,bottle,NaN,bottle2-clock1.png
hycoclip,1,419,NaN,truck,bottle,NaN,bottle2-elephant1.png
hycoclip,1,420,NaN,truck,bottle,NaN,bottle2-knife3.png
hycoclip,1,421,NaN,truck,bottle,NaN,bottle3-airplane2.png
hycoclip,1,422,NaN,truck,bottle,NaN,bottle3-bear2.png
hycoclip,1,423,NaN,truck,bottle,NaN,bottle3-bicycle3.png
hycoclip,1,424,NaN,truck,bottle,NaN,bottle3-bird1.png
hycoclip,1,425,NaN,truck,bottle,NaN,bottle3-boat3.png
hycoclip,1,426,NaN,truck,bottle,NaN,bottle3-bottle3.png
hycoclip,1,427,NaN,truck,bottle,NaN,bottle3-cat3.png
hycoclip,1,428,NaN,truck,bottle,NaN,bottle3-chair3.png
hycoclip,1,429,NaN,truck,bottle,NaN,bottle3-knife3.png
hycoclip,1,430,NaN,truck,bottle,NaN,bottle4-airplane1.png
hycoclip,1,431,NaN,truck,bottle,NaN,bottle4-bicycle1.png
hycoclip,1,432,NaN,truck,bottle,NaN,bottle4-car3.png
hycoclip,1,433,NaN,truck,bottle,NaN,bottle4-dog2.png
hycoclip,1,434,NaN,truck,bottle,NaN,bottle4-oven2.png
hycoclip,1,435,NaN,truck,bottle,NaN,bottle4-truck1.png
hycoclip,1,436,NaN,truck,bottle,NaN,bottle5-airplane1.png
hycoclip,1,437,NaN,truck,bottle,NaN,bottle5-bird3.png
hycoclip,1,438,NaN,truck,bottle,NaN,bottle5-boat1.png
hycoclip,1,439,NaN,truck,bottle,NaN,bottle5-cat1.png
hycoclip,1,440,NaN,truck,bottle,NaN,bottle5-chair1.png
hycoclip,1,441,NaN,truck,bottle,NaN,bottle5-clock3.png
hycoclip,1,442,NaN,truck,bottle,NaN,bottle5-elephant1.png
hycoclip,1,443,NaN,truck,bottle,NaN,bottle5-keyboard2.png
hycoclip,1,444,NaN,truck,bottle,NaN,bottle5-knife1.png
hycoclip,1,445,NaN,truck,bottle,NaN,bottle5-oven2.png
hycoclip,1,446,NaN,truck,bottle,NaN,bottle5-truck1.png
hycoclip,1,447,NaN,truck,bottle,NaN,bottle6-airplane1.png
hycoclip,1,448,NaN,truck,bottle,NaN,bottle6-bear2.png
hycoclip,1,449,NaN,truck,bottle,NaN,bottle6-bicycle3.png
hycoclip,1,450,NaN,truck,bottle,NaN,bottle6-bird1.png
hycoclip,1,451,NaN,truck,bottle,NaN,bottle6-boat3.png
hycoclip,1,452,NaN,truck,bottle,NaN,bottle6-bottle3.png
hycoclip,1,453,NaN,truck,bottle,NaN,bottle6-chair2.png
hycoclip,1,454,NaN,truck,bottle,NaN,bottle6-dog3.png
hycoclip,1,455,NaN,truck,bottle,NaN,bottle6-knife3.png
hycoclip,1,456,NaN,truck,bottle,NaN,bottle6-oven3.png
hycoclip,1,457,NaN,truck,bottle,NaN,bottle7-airplane3.png
hycoclip,1,458,NaN,truck,bottle,NaN,bottle7-bear1.png
hycoclip,1,459,NaN,truck,bottle,NaN,bottle7-boat3.png
hycoclip,1,460,NaN,truck,bottle,NaN,bottle7-cat2.png
hycoclip,1,461,NaN,truck,bottle,NaN,bottle7-clock1.png
hycoclip,1,462,NaN,truck,bottle,NaN,bottle7-elephant2.png
hycoclip,1,463,NaN,truck,bottle,NaN,bottle7-keyboard2.png
hycoclip,1,464,NaN,truck,bottle,NaN,bottle7-oven2.png
hycoclip,1,465,NaN,truck,bottle,NaN,bottle7-truck2.png
hycoclip,1,466,NaN,truck,bottle,NaN,bottle8-bicycle1.png
hycoclip,1,467,NaN,truck,bottle,NaN,bottle8-bird1.png
hycoclip,1,468,NaN,truck,bottle,NaN,bottle8-bottle3.png
hycoclip,1,469,NaN,truck,bottle,NaN,bottle8-dog2.png
hycoclip,1,470,NaN,truck,bottle,NaN,bottle8-elephant3.png
hycoclip,1,471,NaN,truck,bottle,NaN,bottle8-keyboard3.png
hycoclip,1,472,NaN,truck,bottle,NaN,bottle8-knife1.png
hycoclip,1,473,NaN,truck,bottle,NaN,bottle9-bicycle1.png
hycoclip,1,474,NaN,truck,bottle,NaN,bottle9-bottle1.png
hycoclip,1,475,NaN,truck,bottle,NaN,bottle9-car3.png
hycoclip,1,476,NaN,truck,bottle,NaN,bottle9-cat2.png
hycoclip,1,477,NaN,truck,bottle,NaN,bottle9-elephant2.png
hycoclip,1,478,NaN,truck,bottle,NaN,bottle9-keyboard1.png
hycoclip,1,479,NaN,truck,bottle,NaN,bottle9-oven2.png
hycoclip,1,480,NaN,truck,bottle,NaN,bottle9-truck1.png
hycoclip,1,481,NaN,truck,car,NaN,car1-airplane1.png
hycoclip,1,482,NaN,truck,car,NaN,car1-car2.png
hycoclip,1,483,NaN,truck,car,NaN,car1-chair3.png
hycoclip,1,484,NaN,truck,car,NaN,car1-clock2.png
hycoclip,1,485,NaN,truck,car,NaN,car1-dog2.png
hycoclip,1,486,NaN,truck,car,NaN,car1-keyboard2.png
hycoclip,1,487,NaN,truck,car,NaN,car1-oven3.png
hycoclip,1,488,NaN,truck,car,NaN,car10-bicycle2.png
hycoclip,1,489,NaN,truck,car,NaN,car10-bottle3.png
hycoclip,1,490,NaN,truck,car,NaN,car10-car1.png
hycoclip,1,491,NaN,truck,car,NaN,car10-chair1.png
hycoclip,1,492,NaN,truck,car,NaN,car10-dog1.png
hycoclip,1,493,NaN,truck,car,NaN,car10-elephant2.png
hycoclip,1,494,NaN,truck,car,NaN,car10-keyboard2.png
hycoclip,1,495,NaN,truck,car,NaN,car2-bird3.png
hycoclip,1,496,NaN,truck,car,NaN,car2-car3.png
hycoclip,1,497,NaN,truck,car,NaN,car2-cat3.png
hycoclip,1,498,NaN,truck,car,NaN,car2-chair1.png
hycoclip,1,499,NaN,truck,car,NaN,car2-knife3.png
hycoclip,1,500,NaN,truck,car,NaN,car3-airplane3.png
hycoclip,1,501,NaN,truck,car,NaN,car3-bird2.png
hycoclip,1,502,NaN,truck,car,NaN,car3-boat1.png
hycoclip,1,503,NaN,truck,car,NaN,car3-bottle3.png
hycoclip,1,504,NaN,truck,car,NaN,car3-dog2.png
hycoclip,1,505,NaN,truck,car,NaN,car3-elephant3.png
hycoclip,1,506,NaN,truck,car,NaN,car3-oven3.png
hycoclip,1,507,NaN,truck,car,NaN,car3-truck1.png
hycoclip,1,508,NaN,truck,car,NaN,car4-bear3.png
hycoclip,1,509,NaN,truck,car,NaN,car4-bicycle3.png
hycoclip,1,510,NaN,truck,car,NaN,car4-bird1.png
hycoclip,1,511,NaN,truck,car,NaN,car4-boat1.png
hycoclip,1,512,NaN,truck,car,NaN,car4-bottle1.png
hycoclip,1,513,NaN,truck,car,NaN,car4-car2.png
hycoclip,1,514,NaN,truck,car,NaN,car4-cat3.png
hycoclip,1,515,NaN,truck,car,NaN,car4-clock1.png
hycoclip,1,516,NaN,truck,car,NaN,car4-elephant3.png
hycoclip,1,517,NaN,truck,car,NaN,car4-oven2.png
hycoclip,1,518,NaN,truck,car,NaN,car5-airplane3.png
hycoclip,1,519,NaN,truck,car,NaN,car5-bear3.png
hycoclip,1,520,NaN,truck,car,NaN,car5-bottle1.png
hycoclip,1,521,NaN,truck,car,NaN,car5-cat1.png
hycoclip,1,522,NaN,truck,car,NaN,car5-keyboard3.png
hycoclip,1,523,NaN,truck,car,NaN,car5-knife2.png
hycoclip,1,524,NaN,truck,car,NaN,car5-oven2.png
hycoclip,1,525,NaN,truck,car,NaN,car5-truck3.png
hycoclip,1,526,NaN,truck,car,NaN,car6-bear1.png
hycoclip,1,527,NaN,truck,car,NaN,car6-bicycle3.png
hycoclip,1,528,NaN,truck,car,NaN,car6-boat1.png
hycoclip,1,529,NaN,truck,car,NaN,car6-bottle1.png
hycoclip,1,530,NaN,truck,car,NaN,car6-chair3.png
hycoclip,1,531,NaN,truck,car,NaN,car6-elephant3.png
hycoclip,1,532,NaN,truck,car,NaN,car6-knife1.png
hycoclip,1,533,NaN,truck,car,NaN,car6-truck3.png
hycoclip,1,534,NaN,truck,car,NaN,car7-airplane2.png
hycoclip,1,535,NaN,truck,car,NaN,car7-bear1.png
hycoclip,1,536,NaN,truck,car,NaN,car7-bird3.png
hycoclip,1,537,NaN,truck,car,NaN,car7-boat3.png
hycoclip,1,538,NaN,truck,car,NaN,car7-car1.png
hycoclip,1,539,NaN,truck,car,NaN,car7-clock1.png
hycoclip,1,540,NaN,truck,car,NaN,car7-dog3.png
hycoclip,1,541,NaN,truck,car,NaN,car7-elephant3.png
hycoclip,1,542,NaN,truck,car,NaN,car7-keyboard3.png
hycoclip,1,543,NaN,truck,car,NaN,car7-oven2.png
hycoclip,1,544,NaN,truck,car,NaN,car8-airplane3.png
hycoclip,1,545,NaN,truck,car,NaN,car8-bear1.png
hycoclip,1,546,NaN,truck,car,NaN,car8-bicycle2.png
hycoclip,1,547,NaN,truck,car,NaN,car8-boat3.png
hycoclip,1,548,NaN,truck,car,NaN,car8-cat1.png
hycoclip,1,549,NaN,truck,car,NaN,car8-chair1.png
hycoclip,1,550,NaN,truck,car,NaN,car8-clock2.png
hycoclip,1,551,NaN,truck,car,NaN,car8-dog1.png
hycoclip,1,552,NaN,truck,car,NaN,car8-knife2.png
hycoclip,1,553,NaN,truck,car,NaN,car8-truck3.png
hycoclip,1,554,NaN,truck,car,NaN,car9-bicycle2.png
hycoclip,1,555,NaN,truck,car,NaN,car9-bird1.png
hycoclip,1,556,NaN,truck,car,NaN,car9-cat1.png
hycoclip,1,557,NaN,truck,car,NaN,car9-clock2.png
hycoclip,1,558,NaN,truck,car,NaN,car9-keyboard2.png
hycoclip,1,559,NaN,truck,car,NaN,car9-knife1.png
hycoclip,1,560,NaN,truck,car,NaN,car9-truck3.png
hycoclip,1,561,NaN,truck,cat,NaN,cat1-airplane1.png
hycoclip,1,562,NaN,truck,cat,NaN,cat1-bird1.png
hycoclip,1,563,NaN,truck,cat,NaN,cat1-boat1.png
hycoclip,1,564,NaN,truck,cat,NaN,cat1-car2.png
hycoclip,1,565,NaN,truck,cat,NaN,cat1-cat3.png
hycoclip,1,566,NaN,truck,cat,NaN,cat1-chair2.png
hycoclip,1,567,NaN,truck,cat,NaN,cat1-dog1.png
hycoclip,1,568,NaN,truck,cat,NaN,cat1-keyboard3.png
hycoclip,1,569,NaN,truck,cat,NaN,cat1-oven1.png
hycoclip,1,570,NaN,truck,cat,NaN,cat10-airplane3.png
hycoclip,1,571,NaN,truck,cat,NaN,cat10-bear1.png
hycoclip,1,572,NaN,truck,cat,NaN,cat10-bicycle1.png
hycoclip,1,573,NaN,truck,cat,NaN,cat10-bird2.png
hycoclip,1,574,NaN,truck,cat,NaN,cat10-bottle1.png
hycoclip,1,575,NaN,truck,cat,NaN,cat10-clock1.png
hycoclip,1,576,NaN,truck,cat,NaN,cat10-elephant3.png
hycoclip,1,577,NaN,truck,cat,NaN,cat10-keyboard1.png
hycoclip,1,578,NaN,truck,cat,NaN,cat10-oven2.png
hycoclip,1,579,NaN,truck,cat,NaN,cat2-boat2.png
hycoclip,1,580,NaN,truck,cat,NaN,cat2-bottle3.png
hycoclip,1,581,NaN,truck,cat,NaN,cat2-car3.png
hycoclip,1,582,NaN,truck,cat,NaN,cat2-cat1.png
hycoclip,1,583,NaN,truck,cat,NaN,cat2-elephant1.png
hycoclip,1,584,NaN,truck,cat,NaN,cat2-knife3.png
hycoclip,1,585,NaN,truck,cat,NaN,cat2-truck3.png
hycoclip,1,586,NaN,truck,cat,NaN,cat3-bear2.png
hycoclip,1,587,NaN,truck,cat,NaN,cat3-bicycle1.png
hycoclip,1,588,NaN,truck,cat,NaN,cat3-cat1.png
hycoclip,1,589,NaN,truck,cat,NaN,cat3-elephant2.png
hycoclip,1,590,NaN,truck,cat,NaN,cat3-oven2.png
hycoclip,1,591,NaN,truck,cat,NaN,cat3-truck3.png
hycoclip,1,592,NaN,truck,cat,NaN,cat4-airplane1.png
hycoclip,1,593,NaN,truck,cat,NaN,cat4-bird2.png
hycoclip,1,594,NaN,truck,cat,NaN,cat4-car2.png
hycoclip,1,595,NaN,truck,cat,NaN,cat4-cat3.png
hycoclip,1,596,NaN,truck,cat,NaN,cat4-chair2.png
hycoclip,1,597,NaN,truck,cat,NaN,cat4-clock2.png
hycoclip,1,598,NaN,truck,cat,NaN,cat4-dog3.png
hycoclip,1,599,NaN,truck,cat,NaN,cat4-keyboard2.png
hycoclip,1,600,NaN,truck,cat,NaN,cat4-knife1.png
hycoclip,1,601,NaN,truck,cat,NaN,cat4-oven1.png
hycoclip,1,602,NaN,truck,cat,NaN,cat4-truck3.png
hycoclip,1,603,NaN,truck,cat,NaN,cat5-airplane2.png
hycoclip,1,604,NaN,truck,cat,NaN,cat5-bear2.png
hycoclip,1,605,NaN,truck,cat,NaN,cat5-bicycle3.png
hycoclip,1,606,NaN,truck,cat,NaN,cat5-boat1.png
hycoclip,1,607,NaN,truck,cat,NaN,cat5-bottle1.png
hycoclip,1,608,NaN,truck,cat,NaN,cat5-car2.png
hycoclip,1,609,NaN,truck,cat,NaN,cat5-chair3.png
hycoclip,1,610,NaN,truck,cat,NaN,cat5-dog3.png
hycoclip,1,611,NaN,truck,cat,NaN,cat5-elephant2.png
hycoclip,1,612,NaN,truck,cat,NaN,cat5-keyboard3.png
hycoclip,1,613,NaN,truck,cat,NaN,cat5-knife2.png
hycoclip,1,614,NaN,truck,cat,NaN,cat6-bear1.png
hycoclip,1,615,NaN,truck,cat,NaN,cat6-chair3.png
hycoclip,1,616,NaN,truck,cat,NaN,cat6-clock3.png
hycoclip,1,617,NaN,truck,cat,NaN,cat6-keyboard3.png
hycoclip,1,618,NaN,truck,cat,NaN,cat6-oven1.png
hycoclip,1,619,NaN,truck,cat,NaN,cat7-airplane2.png
hycoclip,1,620,NaN,truck,cat,NaN,cat7-boat3.png
hycoclip,1,621,NaN,truck,cat,NaN,cat7-bottle1.png
hycoclip,1,622,NaN,truck,cat,NaN,cat7-clock3.png
hycoclip,1,623,NaN,truck,cat,NaN,cat7-dog3.png
hycoclip,1,624,NaN,truck,cat,NaN,cat7-elephant1.png
hycoclip,1,625,NaN,truck,cat,NaN,cat7-knife2.png
hycoclip,1,626,NaN,truck,cat,NaN,cat7-truck2.png
hycoclip,1,627,NaN,truck,cat,NaN,cat8-bear1.png
hycoclip,1,628,NaN,truck,cat,NaN,cat8-bicycle3.png
hycoclip,1,629,NaN,truck,cat,NaN,cat8-bird2.png
hycoclip,1,630,NaN,truck,cat,NaN,cat8-car2.png
hycoclip,1,631,NaN,truck,cat,NaN,cat9-bicycle1.png
hycoclip,1,632,NaN,truck,cat,NaN,cat9-bird3.png
hycoclip,1,633,NaN,truck,cat,NaN,cat9-boat2.png
hycoclip,1,634,NaN,truck,cat,NaN,cat9-bottle2.png
hycoclip,1,635,NaN,truck,cat,NaN,cat9-cat3.png
hycoclip,1,636,NaN,truck,cat,NaN,cat9-chair2.png
hycoclip,1,637,NaN,truck,cat,NaN,cat9-clock2.png
hycoclip,1,638,NaN,truck,cat,NaN,cat9-dog2.png
hycoclip,1,639,NaN,truck,cat,NaN,cat9-knife2.png
hycoclip,1,640,NaN,truck,cat,NaN,cat9-truck1.png
hycoclip,1,641,NaN,truck,chair,NaN,chair1-airplane2.png
hycoclip,1,642,NaN,truck,chair,NaN,chair1-bear1.png
hycoclip,1,643,NaN,truck,chair,NaN,chair1-cat3.png
hycoclip,1,644,NaN,truck,chair,NaN,chair1-chair1.png
hycoclip,1,645,NaN,truck,chair,NaN,chair1-clock2.png
hycoclip,1,646,NaN,truck,chair,NaN,chair1-dog1.png
hycoclip,1,647,NaN,truck,chair,NaN,chair1-elephant1.png
hycoclip,1,648,NaN,truck,chair,NaN,chair1-oven3.png
hycoclip,1,649,NaN,truck,chair,NaN,chair1-truck3.png
hycoclip,1,650,NaN,truck,chair,NaN,chair10-airplane2.png
hycoclip,1,651,NaN,truck,chair,NaN,chair10-bicycle1.png
hycoclip,1,652,NaN,truck,chair,NaN,chair10-bird3.png
hycoclip,1,653,NaN,truck,chair,NaN,chair10-bottle3.png
hycoclip,1,654,NaN,truck,chair,NaN,chair10-car2.png
hycoclip,1,655,NaN,truck,chair,NaN,chair10-cat1.png
hycoclip,1,656,NaN,truck,chair,NaN,chair10-clock1.png
hycoclip,1,657,NaN,truck,chair,NaN,chair10-dog1.png
hycoclip,1,658,NaN,truck,chair,NaN,chair10-oven1.png
hycoclip,1,659,NaN,truck,chair,NaN,chair2-bear2.png
hycoclip,1,660,NaN,truck,chair,NaN,chair2-boat1.png
hycoclip,1,661,NaN,car,chair,NaN,chair2-keyboard2.png
hycoclip,1,662,NaN,truck,chair,NaN,chair2-knife1.png
hycoclip,1,663,NaN,truck,chair,NaN,chair3-airplane2.png
hycoclip,1,664,NaN,truck,chair,NaN,chair3-bicycle3.png
hycoclip,1,665,NaN,truck,chair,NaN,chair3-bottle3.png
hycoclip,1,666,NaN,truck,chair,NaN,chair3-car3.png
hycoclip,1,667,NaN,truck,chair,NaN,chair3-dog2.png
hycoclip,1,668,NaN,truck,chair,NaN,chair3-knife1.png
hycoclip,1,669,NaN,truck,chair,NaN,chair4-bear2.png
hycoclip,1,670,NaN,truck,chair,NaN,chair4-cat2.png
hycoclip,1,671,NaN,truck,chair,NaN,chair4-chair3.png
hycoclip,1,672,NaN,truck,chair,NaN,chair4-keyboard2.png
hycoclip,1,673,NaN,truck,chair,NaN,chair4-oven2.png
hycoclip,1,674,NaN,truck,chair,NaN,chair4-truck2.png
hycoclip,1,675,NaN,truck,chair,NaN,chair5-bicycle1.png
hycoclip,1,676,NaN,truck,chair,NaN,chair5-bird1.png
hycoclip,1,677,NaN,truck,chair,NaN,chair5-boat3.png
hycoclip,1,678,NaN,truck,chair,NaN,chair5-bottle3.png
hycoclip,1,679,NaN,truck,chair,NaN,chair5-car1.png
hycoclip,1,680,NaN,truck,chair,NaN,chair5-cat3.png
hycoclip,1,681,NaN,truck,chair,NaN,chair5-clock2.png
hycoclip,1,682,NaN,truck,chair,NaN,chair5-keyboard2.png
hycoclip,1,683,NaN,truck,chair,NaN,chair5-knife3.png
hycoclip,1,684,NaN,truck,chair,NaN,chair5-oven2.png
hycoclip,1,685,NaN,truck,chair,NaN,chair5-truck3.png
hycoclip,1,686,NaN,truck,chair,NaN,chair6-bird2.png
hycoclip,1,687,NaN,truck,chair,NaN,chair6-dog1.png
hycoclip,1,688,NaN,truck,chair,NaN,chair6-elephant2.png
hycoclip,1,689,NaN,truck,chair,NaN,chair6-truck2.png
hycoclip,1,690,NaN,truck,chair,NaN,chair7-airplane1.png
hycoclip,1,691,NaN,truck,chair,NaN,chair7-bird1.png
hycoclip,1,692,NaN,truck,chair,NaN,chair7-boat3.png
hycoclip,1,693,NaN,truck,chair,NaN,chair7-bottle1.png
hycoclip,1,694,NaN,truck,chair,NaN,chair7-car2.png
hycoclip,1,695,NaN,truck,chair,NaN,chair7-cat1.png
hycoclip,1,696,NaN,truck,chair,NaN,chair7-chair1.png
hycoclip,1,697,NaN,truck,chair,NaN,chair7-clock3.png
hycoclip,1,698,NaN,truck,chair,NaN,chair7-elephant1.png
hycoclip,1,699,NaN,truck,chair,NaN,chair7-knife2.png
hycoclip,1,700,NaN,truck,chair,NaN,chair7-truck3.png
hycoclip,1,701,NaN,truck,chair,NaN,chair8-airplane1.png
hycoclip,1,702,NaN,truck,chair,NaN,chair8-bear1.png
hycoclip,1,703,NaN,truck,chair,NaN,chair8-bicycle3.png
hycoclip,1,704,NaN,truck,chair,NaN,chair8-boat1.png
hycoclip,1,705,NaN,truck,chair,NaN,chair8-car1.png
hycoclip,1,706,NaN,truck,chair,NaN,chair8-chair3.png
hycoclip,1,707,NaN,truck,chair,NaN,chair8-clock3.png
hycoclip,1,708,NaN,truck,chair,NaN,chair8-elephant1.png
hycoclip,1,709,NaN,truck,chair,NaN,chair8-keyboard3.png
hycoclip,1,710,NaN,truck,chair,NaN,chair8-knife2.png
hycoclip,1,711,NaN,truck,chair,NaN,chair8-oven1.png
hycoclip,1,712,NaN,truck,chair,NaN,chair9-bear1.png
hycoclip,1,713,NaN,truck,chair,NaN,chair9-bicycle3.png
hycoclip,1,714,NaN,truck,chair,NaN,chair9-bird3.png
hycoclip,1,715,NaN,truck,chair,NaN,chair9-boat2.png
hycoclip,1,716,NaN,truck,chair,NaN,chair9-bottle3.png
hycoclip,1,717,NaN,truck,chair,NaN,chair9-chair3.png
hycoclip,1,718,NaN,truck,chair,NaN,chair9-dog2.png
hycoclip,1,719,NaN,truck,chair,NaN,chair9-elephant1.png
hycoclip,1,720,NaN,truck,chair,NaN,chair9-keyboard2.png
hycoclip,1,721,NaN,truck,clock,NaN,clock1-bear1.png
hycoclip,1,722,NaN,truck,clock,NaN,clock1-boat3.png
hycoclip,1,723,NaN,truck,clock,NaN,clock1-car1.png
hycoclip,1,724,NaN,truck,clock,NaN,clock1-clock2.png
hycoclip,1,725,NaN,truck,clock,NaN,clock1-dog2.png
hycoclip,1,726,NaN,truck,clock,NaN,clock1-elephant2.png
hycoclip,1,727,NaN,truck,clock,NaN,clock1-truck3.png
hycoclip,1,728,NaN,truck,clock,NaN,clock10-airplane1.png
hycoclip,1,729,NaN,truck,clock,NaN,clock10-bird3.png
hycoclip,1,730,NaN,truck,clock,NaN,clock10-boat2.png
hycoclip,1,731,NaN,truck,clock,NaN,clock10-bottle1.png
hycoclip,1,732,NaN,truck,clock,NaN,clock10-cat1.png
hycoclip,1,733,NaN,truck,clock,NaN,clock10-clock3.png
hycoclip,1,734,NaN,truck,clock,NaN,clock10-dog3.png
hycoclip,1,735,NaN,truck,clock,NaN,clock10-knife3.png
hycoclip,1,736,NaN,truck,clock,NaN,clock10-oven2.png
hycoclip,1,737,NaN,truck,clock,NaN,clock10-truck2.png
hycoclip,1,738,NaN,truck,clock,NaN,clock2-bear2.png
hycoclip,1,739,NaN,truck,clock,NaN,clock2-bicycle1.png
hycoclip,1,740,NaN,truck,clock,NaN,clock2-bottle3.png
hycoclip,1,741,NaN,truck,clock,NaN,clock2-clock3.png
hycoclip,1,742,NaN,truck,clock,NaN,clock2-dog1.png
hycoclip,1,743,NaN,truck,clock,NaN,clock2-elephant2.png
hycoclip,1,744,NaN,truck,clock,NaN,clock2-knife1.png
hycoclip,1,745,NaN,truck,clock,NaN,clock3-bear3.png
hycoclip,1,746,NaN,truck,clock,NaN,clock3-bicycle2.png
hycoclip,1,747,NaN,truck,clock,NaN,clock3-bird1.png
hycoclip,1,748,NaN,truck,clock,NaN,clock3-car2.png
hycoclip,1,749,NaN,truck,clock,NaN,clock3-cat1.png
hycoclip,1,750,NaN,truck,clock,NaN,clock3-dog2.png
hycoclip,1,751,NaN,truck,clock,NaN,clock3-elephant3.png
hycoclip,1,752,NaN,truck,clock,NaN,clock3-keyboard3.png
hycoclip,1,753,NaN,truck,clock,NaN,clock4-airplane1.png
hycoclip,1,754,NaN,truck,clock,NaN,clock4-bird3.png
hycoclip,1,755,NaN,truck,clock,NaN,clock4-boat3.png
hycoclip,1,756,NaN,truck,clock,NaN,clock4-bottle3.png
hycoclip,1,757,NaN,truck,clock,NaN,clock4-car2.png
hycoclip,1,758,NaN,truck,clock,NaN,clock4-chair1.png
hycoclip,1,759,NaN,truck,clock,NaN,clock4-elephant2.png
hycoclip,1,760,NaN,truck,clock,NaN,clock4-knife1.png
hycoclip,1,761,NaN,truck,clock,NaN,clock4-oven1.png
hycoclip,1,762,NaN,truck,clock,NaN,clock5-airplane1.png
hycoclip,1,763,NaN,truck,clock,NaN,clock5-bicycle1.png
hycoclip,1,764,NaN,truck,clock,NaN,clock5-chair3.png
hycoclip,1,765,NaN,truck,clock,NaN,clock5-clock2.png
hycoclip,1,766,NaN,truck,clock,NaN,clock5-elephant2.png
hycoclip,1,767,NaN,truck,clock,NaN,clock5-keyboard1.png
hycoclip,1,768,NaN,truck,clock,NaN,clock5-oven1.png
hycoclip,1,769,NaN,truck,clock,NaN,clock6-bicycle1.png
hycoclip,1,770,NaN,truck,clock,NaN,clock6-bird3.png
hycoclip,1,771,NaN,truck,clock,NaN,clock6-bottle1.png
hycoclip,1,772,NaN,truck,clock,NaN,clock6-car2.png
hycoclip,1,773,NaN,truck,clock,NaN,clock6-chair3.png
hycoclip,1,774,NaN,truck,clock,NaN,clock6-clock2.png
hycoclip,1,775,NaN,truck,clock,NaN,clock6-knife2.png
hycoclip,1,776,NaN,truck,clock,NaN,clock6-oven1.png
hycoclip,1,777,NaN,truck,clock,NaN,clock6-truck3.png
hycoclip,1,778,NaN,truck,clock,NaN,clock7-bear2.png
hycoclip,1,779,NaN,truck,clock,NaN,clock7-bicycle1.png
hycoclip,1,780,NaN,truck,clock,NaN,clock7-boat3.png
hycoclip,1,781,NaN,truck,clock,NaN,clock7-bottle2.png
hycoclip,1,782,NaN,truck,clock,NaN,clock7-car1.png
hycoclip,1,783,NaN,truck,clock,NaN,clock7-cat2.png
hycoclip,1,784,NaN,truck,clock,NaN,clock7-dog2.png
hycoclip,1,785,NaN,truck,clock,NaN,clock7-keyboard2.png
hycoclip,1,786,NaN,truck,clock,NaN,clock7-truck3.png
hycoclip,1,787,NaN,truck,clock,NaN,clock8-airplane2.png
hycoclip,1,788,NaN,truck,clock,NaN,clock8-bear2.png
hycoclip,1,789,NaN,truck,clock,NaN,clock8-boat1.png
hycoclip,1,790,NaN,truck,clock,NaN,clock8-cat1.png
hycoclip,1,791,NaN,truck,clock,NaN,clock8-chair2.png
hycoclip,1,792,NaN,truck,clock,NaN,clock8-keyboard1.png
hycoclip,1,793,NaN,truck,clock,NaN,clock8-knife1.png
hycoclip,1,794,NaN,truck,clock,NaN,clock8-oven3.png
hycoclip,1,795,NaN,truck,clock,NaN,clock8-truck2.png
hycoclip,1,796,NaN,truck,clock,NaN,clock9-airplane1.png
hycoclip,1,797,NaN,truck,clock,NaN,clock9-bird2.png
hycoclip,1,798,NaN,truck,clock,NaN,clock9-cat1.png
hycoclip,1,799,NaN,truck,clock,NaN,clock9-chair3.png
hycoclip,1,800,NaN,truck,clock,NaN,clock9-keyboard2.png
hycoclip,1,801,NaN,truck,dog,NaN,dog1-airplane3.png
hycoclip,1,802,NaN,truck,dog,NaN,dog1-bear1.png
hycoclip,1,803,NaN,truck,dog,NaN,dog1-bird1.png
hycoclip,1,804,NaN,truck,dog,NaN,dog1-boat3.png
hycoclip,1,805,NaN,truck,dog,NaN,dog1-car2.png
hycoclip,1,806,NaN,truck,dog,NaN,dog1-cat3.png
hycoclip,1,807,NaN,truck,dog,NaN,dog1-chair1.png
hycoclip,1,808,NaN,truck,dog,NaN,dog1-dog2.png
hycoclip,1,809,NaN,truck,dog,NaN,dog1-knife3.png
hycoclip,1,810,NaN,truck,dog,NaN,dog10-airplane1.png
hycoclip,1,811,NaN,truck,dog,NaN,dog10-bicycle1.png
hycoclip,1,812,NaN,truck,dog,NaN,dog10-bottle1.png
hycoclip,1,813,NaN,truck,dog,NaN,dog10-car3.png
hycoclip,1,814,NaN,truck,dog,NaN,dog10-clock1.png
hycoclip,1,815,NaN,truck,dog,NaN,dog10-dog1.png
hycoclip,1,816,NaN,truck,dog,NaN,dog10-elephant1.png
hycoclip,1,817,NaN,truck,dog,NaN,dog10-keyboard2.png
hycoclip,1,818,NaN,truck,dog,NaN,dog10-oven2.png
hycoclip,1,819,NaN,truck,dog,NaN,dog10-truck2.png
hycoclip,1,820,NaN,truck,dog,NaN,dog2-airplane2.png
hycoclip,1,821,NaN,truck,dog,NaN,dog2-bicycle2.png
hycoclip,1,822,NaN,truck,dog,NaN,dog2-bottle2.png
hycoclip,1,823,NaN,truck,dog,NaN,dog2-cat1.png
hycoclip,1,824,NaN,truck,dog,NaN,dog2-dog3.png
hycoclip,1,825,NaN,truck,dog,NaN,dog2-knife3.png
hycoclip,1,826,NaN,truck,dog,NaN,dog3-bear3.png
hycoclip,1,827,NaN,truck,dog,NaN,dog3-bird2.png
hycoclip,1,828,NaN,truck,dog,NaN,dog3-boat1.png
hycoclip,1,829,NaN,truck,dog,NaN,dog3-clock1.png
hycoclip,1,830,NaN,truck,dog,NaN,dog3-dog1.png
hycoclip,1,831,NaN,truck,dog,NaN,dog3-elephant2.png
hycoclip,1,832,NaN,truck,dog,NaN,dog3-keyboard1.png
hycoclip,1,833,NaN,truck,dog,NaN,dog3-knife3.png
hycoclip,1,834,NaN,truck,dog,NaN,dog3-truck2.png
hycoclip,1,835,NaN,truck,dog,NaN,dog4-airplane3.png
hycoclip,1,836,NaN,truck,dog,NaN,dog4-bicycle1.png
hycoclip,1,837,NaN,truck,dog,NaN,dog4-bird1.png
hycoclip,1,838,NaN,truck,dog,NaN,dog4-bottle2.png
hycoclip,1,839,NaN,truck,dog,NaN,dog4-cat3.png
hycoclip,1,840,NaN,truck,dog,NaN,dog4-chair1.png
hycoclip,1,841,NaN,truck,dog,NaN,dog4-clock1.png
hycoclip,1,842,NaN,truck,dog,NaN,dog4-elephant2.png
hycoclip,1,843,NaN,truck,dog,NaN,dog4-keyboard2.png
hycoclip,1,844,NaN,truck,dog,NaN,dog4-oven1.png
hycoclip,1,845,NaN,truck,dog,NaN,dog4-truck2.png
hycoclip,1,846,NaN,truck,dog,NaN,dog5-bear3.png
hycoclip,1,847,NaN,truck,dog,NaN,dog5-boat3.png
hycoclip,1,848,NaN,truck,dog,NaN,dog5-car3.png
hycoclip,1,849,NaN,truck,dog,NaN,dog5-elephant1.png
hycoclip,1,850,NaN,truck,dog,NaN,dog5-knife2.png
hycoclip,1,851,NaN,truck,dog,NaN,dog5-oven1.png
hycoclip,1,852,NaN,truck,dog,NaN,dog5-truck2.png
hycoclip,1,853,NaN,bottle,dog,NaN,dog6-bicycle1.png
hycoclip,1,854,NaN,truck,dog,NaN,dog6-bird1.png
hycoclip,1,855,NaN,truck,dog,NaN,dog6-cat1.png
hycoclip,1,856,NaN,truck,dog,NaN,dog6-clock1.png
hycoclip,1,857,NaN,truck,dog,NaN,dog6-elephant2.png
hycoclip,1,858,NaN,truck,dog,NaN,dog6-truck2.png
hycoclip,1,859,NaN,truck,dog,NaN,dog7-bird3.png
hycoclip,1,860,NaN,truck,dog,NaN,dog7-car2.png
hycoclip,1,861,NaN,truck,dog,NaN,dog7-chair2.png
hycoclip,1,862,NaN,truck,dog,NaN,dog7-keyboard3.png
hycoclip,1,863,NaN,truck,dog,NaN,dog7-knife3.png
hycoclip,1,864,NaN,truck,dog,NaN,dog7-oven2.png
hycoclip,1,865,NaN,truck,dog,NaN,dog8-bear3.png
hycoclip,1,866,NaN,truck,dog,NaN,dog8-boat3.png
hycoclip,1,867,NaN,truck,dog,NaN,dog8-bottle2.png
hycoclip,1,868,NaN,truck,dog,NaN,dog8-chair3.png
hycoclip,1,869,NaN,truck,dog,NaN,dog8-clock2.png
hycoclip,1,870,NaN,truck,dog,NaN,dog8-dog3.png
hycoclip,1,871,NaN,truck,dog,NaN,dog8-keyboard3.png
hycoclip,1,872,NaN,truck,dog,NaN,dog8-oven3.png
hycoclip,1,873,NaN,truck,dog,NaN,dog9-airplane3.png
hycoclip,1,874,NaN,truck,dog,NaN,dog9-bear3.png
hycoclip,1,875,NaN,truck,dog,NaN,dog9-bicycle3.png
hycoclip,1,876,NaN,truck,dog,NaN,dog9-boat1.png
hycoclip,1,877,NaN,truck,dog,NaN,dog9-bottle1.png
hycoclip,1,878,NaN,truck,dog,NaN,dog9-car1.png
hycoclip,1,879,NaN,truck,dog,NaN,dog9-cat1.png
hycoclip,1,880,NaN,truck,dog,NaN,dog9-chair2.png
hycoclip,1,881,NaN,truck,elephant,NaN,elephant1-airplane2.png
hycoclip,1,882,NaN,truck,elephant,NaN,elephant1-bear2.png
hycoclip,1,883,NaN,truck,elephant,NaN,elephant1-boat2.png
hycoclip,1,884,NaN,truck,elephant,NaN,elephant1-bottle1.png
hycoclip,1,885,NaN,truck,elephant,NaN,elephant1-car3.png
hycoclip,1,886,NaN,truck,elephant,NaN,elephant1-chair1.png
hycoclip,1,887,NaN,truck,elephant,NaN,elephant1-dog2.png
hycoclip,1,888,NaN,truck,elephant,NaN,elephant1-keyboard3.png
hycoclip,1,889,NaN,truck,elephant,NaN,elephant1-oven2.png
hycoclip,1,890,NaN,truck,elephant,NaN,elephant10-bear1.png
hycoclip,1,891,NaN,truck,elephant,NaN,elephant10-elephant1.png
hycoclip,1,892,NaN,truck,elephant,NaN,elephant10-keyboard1.png
hycoclip,1,893,NaN,truck,elephant,NaN,elephant10-knife3.png
hycoclip,1,894,NaN,truck,elephant,NaN,elephant2-airplane3.png
hycoclip,1,895,NaN,truck,elephant,NaN,elephant2-bear3.png
hycoclip,1,896,NaN,truck,elephant,NaN,elephant2-bird1.png
hycoclip,1,897,NaN,truck,elephant,NaN,elephant2-boat1.png
hycoclip,1,898,NaN,truck,elephant,NaN,elephant2-bottle3.png
hycoclip,1,899,NaN,truck,elephant,NaN,elephant2-cat1.png
hycoclip,1,900,NaN,truck,elephant,NaN,elephant2-clock1.png
hycoclip,1,901,NaN,truck,elephant,NaN,elephant2-elephant3.png
hycoclip,1,902,NaN,truck,elephant,NaN,elephant2-keyboard3.png
hycoclip,1,903,NaN,truck,elephant,NaN,elephant2-truck2.png
hycoclip,1,904,NaN,truck,elephant,NaN,elephant3-cat2.png
hycoclip,1,905,NaN,truck,elephant,NaN,elephant3-chair1.png
hycoclip,1,906,NaN,truck,elephant,NaN,elephant3-keyboard2.png
hycoclip,1,907,NaN,truck,elephant,NaN,elephant3-knife1.png
hycoclip,1,908,NaN,truck,elephant,NaN,elephant3-oven1.png
hycoclip,1,909,NaN,truck,elephant,NaN,elephant3-truck1.png
hycoclip,1,910,NaN,truck,elephant,NaN,elephant4-bicycle2.png
hycoclip,1,911,NaN,truck,elephant,NaN,elephant4-bird1.png
hycoclip,1,912,NaN,truck,elephant,NaN,elephant4-boat3.png
hycoclip,1,913,NaN,truck,elephant,NaN,elephant4-car3.png
hycoclip,1,914,NaN,truck,elephant,NaN,elephant4-chair3.png
hycoclip,1,915,NaN,truck,elephant,NaN,elephant4-clock3.png
hycoclip,1,916,NaN,truck,elephant,NaN,elephant4-oven1.png
hycoclip,1,917,NaN,truck,elephant,NaN,elephant5-bear2.png
hycoclip,1,918,NaN,truck,elephant,NaN,elephant5-bicycle3.png
hycoclip,1,919,NaN,truck,elephant,NaN,elephant5-bottle2.png
hycoclip,1,920,NaN,truck,elephant,NaN,elephant5-car1.png
hycoclip,1,921,NaN,truck,elephant,NaN,elephant5-chair3.png
hycoclip,1,922,NaN,truck,elephant,NaN,elephant5-elephant1.png
hycoclip,1,923,NaN,truck,elephant,NaN,elephant5-truck1.png
hycoclip,1,924,NaN,truck,elephant,NaN,elephant6-bicycle1.png
hycoclip,1,925,NaN,truck,elephant,NaN,elephant6-bird1.png
hycoclip,1,926,NaN,truck,elephant,NaN,elephant6-bottle2.png
hycoclip,1,927,NaN,truck,elephant,NaN,elephant6-car3.png
hycoclip,1,928,NaN,truck,elephant,NaN,elephant6-cat2.png
hycoclip,1,929,NaN,truck,elephant,NaN,elephant6-dog2.png
hycoclip,1,930,NaN,truck,elephant,NaN,elephant6-knife2.png
hycoclip,1,931,NaN,truck,elephant,NaN,elephant6-oven1.png
hycoclip,1,932,NaN,truck,elephant,NaN,elephant6-truck3.png
hycoclip,1,933,NaN,truck,elephant,NaN,elephant7-airplane3.png
hycoclip,1,934,NaN,truck,elephant,NaN,elephant7-bear3.png
hycoclip,1,935,NaN,truck,elephant,NaN,elephant7-bird1.png
hycoclip,1,936,NaN,truck,elephant,NaN,elephant7-bottle3.png
hycoclip,1,937,NaN,truck,elephant,NaN,elephant7-car3.png
hycoclip,1,938,NaN,truck,elephant,NaN,elephant7-cat1.png
hycoclip,1,939,NaN,truck,elephant,NaN,elephant7-clock2.png
hycoclip,1,940,NaN,truck,elephant,NaN,elephant7-dog1.png
hycoclip,1,941,NaN,truck,elephant,NaN,elephant7-keyboard3.png
hycoclip,1,942,NaN,truck,elephant,NaN,elephant7-knife2.png
hycoclip,1,943,NaN,truck,elephant,NaN,elephant8-airplane3.png
hycoclip,1,944,NaN,truck,elephant,NaN,elephant8-bicycle3.png
hycoclip,1,945,NaN,truck,elephant,NaN,elephant8-bird2.png
hycoclip,1,946,NaN,truck,elephant,NaN,elephant8-boat2.png
hycoclip,1,947,NaN,truck,elephant,NaN,elephant8-cat1.png
hycoclip,1,948,NaN,truck,elephant,NaN,elephant8-clock2.png
hycoclip,1,949,NaN,truck,elephant,NaN,elephant8-dog1.png
hycoclip,1,950,NaN,truck,elephant,NaN,elephant8-elephant1.png
hycoclip,1,951,NaN,truck,elephant,NaN,elephant8-knife2.png
hycoclip,1,952,NaN,truck,elephant,NaN,elephant8-oven3.png
hycoclip,1,953,NaN,truck,elephant,NaN,elephant8-truck3.png
hycoclip,1,954,NaN,truck,elephant,NaN,elephant9-airplane2.png
hycoclip,1,955,NaN,truck,elephant,NaN,elephant9-bicycle2.png
hycoclip,1,956,NaN,truck,elephant,NaN,elephant9-boat3.png
hycoclip,1,957,NaN,truck,elephant,NaN,elephant9-chair2.png
hycoclip,1,958,NaN,truck,elephant,NaN,elephant9-clock3.png
hycoclip,1,959,NaN,truck,elephant,NaN,elephant9-dog3.png
hycoclip,1,960,NaN,truck,elephant,NaN,elephant9-elephant3.png
hycoclip,1,961,NaN,truck,keyboard,NaN,keyboard1-airplane2.png
hycoclip,1,962,NaN,truck,keyboard,NaN,keyboard1-bear2.png
hycoclip,1,963,NaN,truck,keyboard,NaN,keyboard1-bird2.png
hycoclip,1,964,NaN,truck,keyboard,NaN,keyboard1-car3.png
hycoclip,1,965,NaN,truck,keyboard,NaN,keyboard1-chair2.png
hycoclip,1,966,NaN,truck,keyboard,NaN,keyboard1-clock1.png
hycoclip,1,967,NaN,truck,keyboard,NaN,keyboard1-dog3.png
hycoclip,1,968,NaN,truck,keyboard,NaN,keyboard1-elephant3.png
hycoclip,1,969,NaN,truck,keyboard,NaN,keyboard10-airplane3.png
hycoclip,1,970,NaN,truck,keyboard,NaN,keyboard10-boat2.png
hycoclip,1,971,NaN,truck,keyboard,NaN,keyboard10-car1.png
hycoclip,1,972,NaN,truck,keyboard,NaN,keyboard10-keyboard1.png
hycoclip,1,973,NaN,truck,keyboard,NaN,keyboard10-oven3.png
hycoclip,1,974,NaN,truck,keyboard,NaN,keyboard10-truck1.png
hycoclip,1,975,NaN,truck,keyboard,NaN,keyboard2-bicycle3.png
hycoclip,1,976,NaN,truck,keyboard,NaN,keyboard2-bottle1.png
hycoclip,1,977,NaN,truck,keyboard,NaN,keyboard2-clock1.png
hycoclip,1,978,NaN,truck,keyboard,NaN,keyboard2-elephant1.png
hycoclip,1,979,NaN,truck,keyboard,NaN,keyboard2-knife1.png
hycoclip,1,980,NaN,truck,keyboard,NaN,keyboard3-bicycle2.png
hycoclip,1,981,NaN,truck,keyboard,NaN,keyboard3-bird3.png
hycoclip,1,982,NaN,truck,keyboard,NaN,keyboard3-boat1.png
hycoclip,1,983,NaN,truck,keyboard,NaN,keyboard3-car2.png
hycoclip,1,984,NaN,truck,keyboard,NaN,keyboard3-cat1.png
hycoclip,1,985,NaN,truck,keyboard,NaN,keyboard3-clock3.png
hycoclip,1,986,NaN,truck,keyboard,NaN,keyboard3-elephant2.png
hycoclip,1,987,NaN,truck,keyboard,NaN,keyboard4-bird1.png
hycoclip,1,988,NaN,truck,keyboard,NaN,keyboard4-bottle2.png
hycoclip,1,989,NaN,truck,keyboard,NaN,keyboard4-cat2.png
hycoclip,1,990,NaN,truck,keyboard,NaN,keyboard4-clock2.png
hycoclip,1,991,NaN,truck,keyboard,NaN,keyboard4-keyboard2.png
hycoclip,1,992,NaN,truck,keyboard,NaN,keyboard4-knife2.png
hycoclip,1,993,NaN,truck,keyboard,NaN,keyboard4-oven2.png
hycoclip,1,994,NaN,truck,keyboard,NaN,keyboard4-truck3.png
hycoclip,1,995,NaN,truck,keyboard,NaN,keyboard5-airplane3.png
hycoclip,1,996,NaN,truck,keyboard,NaN,keyboard5-bear3.png
hycoclip,1,997,NaN,truck,keyboard,NaN,keyboard5-bicycle1.png
hycoclip,1,998,NaN,truck,keyboard,NaN,keyboard5-bird3.png
hycoclip,1,999,NaN,truck,keyboard,NaN,keyboard5-bottle1.png
hycoclip,1,1000,NaN,truck,keyboard,NaN,keyboard5-cat1.png
hycoclip,1,1001,NaN,truck,keyboard,NaN,keyboard5-dog3.png
hycoclip,1,1002,NaN,truck,keyboard,NaN,keyboard5-keyboard1.png
hycoclip,1,1003,NaN,truck,keyboard,NaN,keyboard5-knife2.png
hycoclip,1,1004,NaN,truck,keyboard,NaN,keyboard5-oven2.png
hycoclip,1,1005,NaN,truck,keyboard,NaN,keyboard6-bear2.png
hycoclip,1,1006,NaN,truck,keyboard,NaN,keyboard6-bicycle1.png
hycoclip,1,1007,NaN,truck,keyboard,NaN,keyboard6-boat2.png
hycoclip,1,1008,NaN,truck,keyboard,NaN,keyboard6-bottle2.png
hycoclip,1,1009,NaN,truck,keyboard,NaN,keyboard6-car2.png
hycoclip,1,1010,NaN,truck,keyboard,NaN,keyboard6-chair1.png
hycoclip,1,1011,NaN,truck,keyboard,NaN,keyboard6-dog2.png
hycoclip,1,1012,NaN,truck,keyboard,NaN,keyboard6-elephant1.png
hycoclip,1,1013,NaN,truck,keyboard,NaN,keyboard6-knife2.png
hycoclip,1,1014,NaN,truck,keyboard,NaN,keyboard7-bear2.png
hycoclip,1,1015,NaN,truck,keyboard,NaN,keyboard7-boat2.png
hycoclip,1,1016,NaN,truck,keyboard,NaN,keyboard7-bottle1.png
hycoclip,1,1017,NaN,clock,keyboard,NaN,keyboard7-car3.png
hycoclip,1,1018,NaN,truck,keyboard,NaN,keyboard7-chair3.png
hycoclip,1,1019,NaN,truck,keyboard,NaN,keyboard7-clock3.png
hycoclip,1,1020,NaN,truck,keyboard,NaN,keyboard7-dog1.png
hycoclip,1,1021,NaN,truck,keyboard,NaN,keyboard7-knife1.png
hycoclip,1,1022,NaN,truck,keyboard,NaN,keyboard7-oven2.png
hycoclip,1,1023,NaN,truck,keyboard,NaN,keyboard7-truck2.png
hycoclip,1,1024,NaN,truck,keyboard,NaN,keyboard8-airplane2.png
hycoclip,1,1025,NaN,truck,keyboard,NaN,keyboard8-cat3.png
hycoclip,1,1026,NaN,truck,keyboard,NaN,keyboard8-chair2.png
hycoclip,1,1027,NaN,truck,keyboard,NaN,keyboard8-dog3.png
hycoclip,1,1028,NaN,truck,keyboard,NaN,keyboard8-keyboard2.png
hycoclip,1,1029,NaN,truck,keyboard,NaN,keyboard8-oven1.png
hycoclip,1,1030,NaN,truck,keyboard,NaN,keyboard8-truck3.png
hycoclip,1,1031,NaN,truck,keyboard,NaN,keyboard9-airplane3.png
hycoclip,1,1032,NaN,truck,keyboard,NaN,keyboard9-bear2.png
hycoclip,1,1033,NaN,truck,keyboard,NaN,keyboard9-bicycle2.png
hycoclip,1,1034,NaN,truck,keyboard,NaN,keyboard9-bird1.png
hycoclip,1,1035,NaN,truck,keyboard,NaN,keyboard9-boat2.png
hycoclip,1,1036,NaN,truck,keyboard,NaN,keyboard9-cat1.png
hycoclip,1,1037,NaN,truck,keyboard,NaN,keyboard9-chair2.png
hycoclip,1,1038,NaN,truck,keyboard,NaN,keyboard9-elephant2.png
hycoclip,1,1039,NaN,truck,keyboard,NaN,keyboard9-keyboard2.png
hycoclip,1,1040,NaN,truck,keyboard,NaN,keyboard9-truck3.png
hycoclip,1,1041,NaN,truck,knife,NaN,knife1-airplane1.png
hycoclip,1,1042,NaN,truck,knife,NaN,knife1-bird2.png
hycoclip,1,1043,NaN,truck,knife,NaN,knife1-car3.png
hycoclip,1,1044,NaN,truck,knife,NaN,knife1-chair1.png
hycoclip,1,1045,NaN,truck,knife,NaN,knife1-clock2.png
hycoclip,1,1046,NaN,truck,knife,NaN,knife1-dog1.png
hycoclip,1,1047,NaN,truck,knife,NaN,knife1-elephant1.png
hycoclip,1,1048,NaN,truck,knife,NaN,knife1-keyboard3.png
hycoclip,1,1049,NaN,truck,knife,NaN,knife1-oven1.png
hycoclip,1,1050,NaN,truck,knife,NaN,knife1-truck2.png
hycoclip,1,1051,NaN,truck,knife,NaN,knife10-bear3.png
hycoclip,1,1052,NaN,truck,knife,NaN,knife10-chair1.png
hycoclip,1,1053,NaN,truck,knife,NaN,knife10-dog1.png
hycoclip,1,1054,NaN,truck,knife,NaN,knife10-elephant3.png
hycoclip,1,1055,NaN,truck,knife,NaN,knife10-keyboard3.png
hycoclip,1,1056,NaN,truck,knife,NaN,knife10-knife1.png
hycoclip,1,1057,NaN,truck,knife,NaN,knife10-oven3.png
hycoclip,1,1058,NaN,truck,knife,NaN,knife2-bear2.png
hycoclip,1,1059,NaN,truck,knife,NaN,knife2-bicycle3.png
hycoclip,1,1060,NaN,truck,knife,NaN,knife2-bird1.png
hycoclip,1,1061,NaN,truck,knife,NaN,knife2-bottle2.png
hycoclip,1,1062,NaN,truck,knife,NaN,knife2-car3.png
hycoclip,1,1063,NaN,truck,knife,NaN,knife2-cat3.png
hycoclip,1,1064,NaN,truck,knife,NaN,knife2-dog1.png
hycoclip,1,1065,NaN,truck,knife,NaN,knife2-elephant2.png
hycoclip,1,1066,NaN,truck,knife,NaN,knife2-truck2.png
hycoclip,1,1067,NaN,truck,knife,NaN,knife3-bear2.png
hycoclip,1,1068,NaN,truck,knife,NaN,knife3-cat1.png
hycoclip,1,1069,NaN,truck,knife,NaN,knife3-clock2.png
hycoclip,1,1070,NaN,truck,knife,NaN,knife3-keyboard3.png
hycoclip,1,1071,NaN,truck,knife,NaN,knife3-knife1.png
hycoclip,1,1072,NaN,truck,knife,NaN,knife4-airplane3.png
hycoclip,1,1073,NaN,truck,knife,NaN,knife4-bear1.png
hycoclip,1,1074,NaN,truck,knife,NaN,knife4-boat1.png
hycoclip,1,1075,NaN,truck,knife,NaN,knife4-car2.png
hycoclip,1,1076,NaN,truck,knife,NaN,knife4-cat2.png
hycoclip,1,1077,NaN,truck,knife,NaN,knife4-clock3.png
hycoclip,1,1078,NaN,truck,knife,NaN,knife4-keyboard1.png
hycoclip,1,1079,NaN,truck,knife,NaN,knife4-knife2.png
hycoclip,1,1080,NaN,truck,knife,NaN,knife4-oven2.png
hycoclip,1,1081,NaN,truck,knife,NaN,knife5-bicycle2.png
hycoclip,1,1082,NaN,truck,knife,NaN,knife5-cat2.png
hycoclip,1,1083,NaN,truck,knife,NaN,knife5-clock1.png
hycoclip,1,1084,NaN,truck,knife,NaN,knife5-dog1.png
hycoclip,1,1085,NaN,truck,knife,NaN,knife5-keyboard3.png
hycoclip,1,1086,NaN,truck,knife,NaN,knife5-knife3.png
hycoclip,1,1087,NaN,truck,knife,NaN,knife5-oven2.png
hycoclip,1,1088,NaN,truck,knife,NaN,knife5-truck3.png
hycoclip,1,1089,NaN,truck,knife,NaN,knife6-airplane1.png
hycoclip,1,1090,NaN,truck,knife,NaN,knife6-bicycle1.png
hycoclip,1,1091,NaN,truck,knife,NaN,knife6-bird1.png
hycoclip,1,1092,NaN,truck,knife,NaN,knife6-boat3.png
hycoclip,1,1093,NaN,truck,knife,NaN,knife6-bottle3.png
hycoclip,1,1094,NaN,truck,knife,NaN,knife6-chair3.png
hycoclip,1,1095,NaN,truck,knife,NaN,knife6-clock2.png
hycoclip,1,1096,NaN,truck,knife,NaN,knife6-dog2.png
hycoclip,1,1097,NaN,truck,knife,NaN,knife6-knife1.png
hycoclip,1,1098,NaN,truck,knife,NaN,knife6-oven3.png
hycoclip,1,1099,NaN,truck,knife,NaN,knife6-truck1.png
hycoclip,1,1100,NaN,truck,knife,NaN,knife7-airplane3.png
hycoclip,1,1101,NaN,truck,knife,NaN,knife7-bird3.png
hycoclip,1,1102,NaN,truck,knife,NaN,knife7-boat3.png
hycoclip,1,1103,NaN,truck,knife,NaN,knife7-bottle3.png
hycoclip,1,1104,NaN,truck,knife,NaN,knife7-car2.png
hycoclip,1,1105,NaN,truck,knife,NaN,knife7-chair2.png
hycoclip,1,1106,NaN,truck,knife,NaN,knife7-elephant2.png
hycoclip,1,1107,NaN,truck,knife,NaN,knife8-bicycle1.png
hycoclip,1,1108,NaN,truck,knife,NaN,knife8-boat1.png
hycoclip,1,1109,NaN,truck,knife,NaN,knife8-bottle3.png
hycoclip,1,1110,NaN,truck,knife,NaN,knife8-car2.png
hycoclip,1,1111,NaN,truck,knife,NaN,knife8-cat2.png
hycoclip,1,1112,NaN,truck,knife,NaN,knife8-truck3.png
hycoclip,1,1113,NaN,truck,knife,NaN,knife9-airplane2.png
hycoclip,1,1114,NaN,truck,knife,NaN,knife9-bear3.png
hycoclip,1,1115,NaN,truck,knife,NaN,knife9-bicycle1.png
hycoclip,1,1116,NaN,truck,knife,NaN,knife9-bird1.png
hycoclip,1,1117,NaN,truck,knife,NaN,knife9-boat1.png
hycoclip,1,1118,NaN,truck,knife,NaN,knife9-bottle2.png
hycoclip,1,1119,NaN,truck,knife,NaN,knife9-chair1.png
hycoclip,1,1120,NaN,truck,knife,NaN,knife9-elephant2.png
hycoclip,1,1121,NaN,truck,oven,NaN,oven1-bird3.png
hycoclip,1,1122,NaN,truck,oven,NaN,oven1-boat3.png
hycoclip,1,1123,NaN,truck,oven,NaN,oven1-cat1.png
hycoclip,1,1124,NaN,truck,oven,NaN,oven1-clock3.png
hycoclip,1,1125,NaN,truck,oven,NaN,oven1-dog3.png
hycoclip,1,1126,NaN,truck,oven,NaN,oven10-airplane2.png
hycoclip,1,1127,NaN,truck,oven,NaN,oven10-bear1.png
hycoclip,1,1128,NaN,truck,oven,NaN,oven10-bicycle1.png
hycoclip,1,1129,NaN,truck,oven,NaN,oven10-boat2.png
hycoclip,1,1130,NaN,truck,oven,NaN,oven10-cat2.png
hycoclip,1,1131,NaN,truck,oven,NaN,oven10-oven3.png
hycoclip,1,1132,NaN,truck,oven,NaN,oven10-truck2.png
hycoclip,1,1133,NaN,truck,oven,NaN,oven2-bear3.png
hycoclip,1,1134,NaN,truck,oven,NaN,oven2-bicycle1.png
hycoclip,1,1135,NaN,truck,oven,NaN,oven2-bird2.png
hycoclip,1,1136,NaN,truck,oven,NaN,oven2-boat3.png
hycoclip,1,1137,NaN,truck,oven,NaN,oven2-bottle1.png
hycoclip,1,1138,NaN,truck,oven,NaN,oven2-car1.png
hycoclip,1,1139,NaN,truck,oven,NaN,oven2-chair1.png
hycoclip,1,1140,NaN,truck,oven,NaN,oven2-dog3.png
hycoclip,1,1141,NaN,truck,oven,NaN,oven2-oven3.png
hycoclip,1,1142,NaN,truck,oven,NaN,oven2-truck3.png
hycoclip,1,1143,NaN,truck,oven,NaN,oven3-airplane1.png
hycoclip,1,1144,NaN,truck,oven,NaN,oven3-bear2.png
hycoclip,1,1145,NaN,truck,oven,NaN,oven3-boat3.png
hycoclip,1,1146,NaN,truck,oven,NaN,oven3-bottle3.png
hycoclip,1,1147,NaN,truck,oven,NaN,oven3-car2.png
hycoclip,1,1148,NaN,truck,oven,NaN,oven3-cat2.png
hycoclip,1,1149,NaN,truck,oven,NaN,oven3-clock3.png
hycoclip,1,1150,NaN,truck,oven,NaN,oven3-elephant3.png
hycoclip,1,1151,NaN,truck,oven,NaN,oven3-knife1.png
hycoclip,1,1152,NaN,truck,oven,NaN,oven3-truck1.png
hycoclip,1,1153,NaN,truck,oven,NaN,oven4-bicycle2.png
hycoclip,1,1154,NaN,truck,oven,NaN,oven4-bottle2.png
hycoclip,1,1155,NaN,truck,oven,NaN,oven4-car1.png
hycoclip,1,1156,NaN,truck,oven,NaN,oven4-chair1.png
hycoclip,1,1157,NaN,truck,oven,NaN,oven4-clock2.png
hycoclip,1,1158,NaN,truck,oven,NaN,oven4-dog1.png
hycoclip,1,1159,NaN,truck,oven,NaN,oven4-elephant3.png
hycoclip,1,1160,NaN,truck,oven,NaN,oven4-keyboard3.png
hycoclip,1,1161,NaN,truck,oven,NaN,oven4-knife2.png
hycoclip,1,1162,NaN,truck,oven,NaN,oven4-truck3.png
hycoclip,1,1163,NaN,truck,oven,NaN,oven5-airplane1.png
hycoclip,1,1164,NaN,truck,oven,NaN,oven5-bicycle1.png
hycoclip,1,1165,NaN,truck,oven,NaN,oven5-bird1.png
hycoclip,1,1166,NaN,truck,oven,NaN,oven5-bottle3.png
hycoclip,1,1167,NaN,truck,oven,NaN,oven5-dog3.png
hycoclip,1,1168,NaN,truck,oven,NaN,oven5-elephant1.png
hycoclip,1,1169,NaN,truck,oven,NaN,oven5-keyboard2.png
hycoclip,1,1170,NaN,truck,oven,NaN,oven6-airplane3.png
hycoclip,1,1171,NaN,truck,oven,NaN,oven6-bear2.png
hycoclip,1,1172,NaN,truck,oven,NaN,oven6-bicycle1.png
hycoclip,1,1173,NaN,truck,oven,NaN,oven6-bird1.png
hycoclip,1,1174,NaN,truck,oven,NaN,oven6-chair3.png
hycoclip,1,1175,NaN,truck,oven,NaN,oven6-elephant2.png
hycoclip,1,1176,NaN,truck,oven,NaN,oven6-knife3.png
hycoclip,1,1177,NaN,truck,oven,NaN,oven6-oven3.png
hycoclip,1,1178,NaN,truck,oven,NaN,oven6-truck1.png
hycoclip,1,1179,NaN,truck,oven,NaN,oven7-bottle1.png
hycoclip,1,1180,NaN,truck,oven,NaN,oven7-car3.png
hycoclip,1,1181,NaN,truck,oven,NaN,oven7-cat1.png
hycoclip,1,1182,NaN,truck,oven,NaN,oven7-clock2.png
hycoclip,1,1183,NaN,truck,oven,NaN,oven7-dog2.png
hycoclip,1,1184,NaN,truck,oven,NaN,oven7-elephant1.png
hycoclip,1,1185,NaN,truck,oven,NaN,oven7-keyboard1.png
hycoclip,1,1186,NaN,truck,oven,NaN,oven7-oven1.png
hycoclip,1,1187,NaN,truck,oven,NaN,oven8-cat3.png
hycoclip,1,1188,NaN,truck,oven,NaN,oven8-chair1.png
hycoclip,1,1189,NaN,truck,oven,NaN,oven8-keyboard3.png
hycoclip,1,1190,NaN,truck,oven,NaN,oven8-knife2.png
hycoclip,1,1191,NaN,truck,oven,NaN,oven9-airplane2.png
hycoclip,1,1192,NaN,truck,oven,NaN,oven9-bear2.png
hycoclip,1,1193,NaN,truck,oven,NaN,oven9-bird3.png
hycoclip,1,1194,NaN,truck,oven,NaN,oven9-boat2.png
hycoclip,1,1195,NaN,truck,oven,NaN,oven9-car2.png
hycoclip,1,1196,NaN,truck,oven,NaN,oven9-chair1.png
hycoclip,1,1197,NaN,truck,oven,NaN,oven9-clock2.png
hycoclip,1,1198,NaN,truck,oven,NaN,oven9-keyboard1.png
hycoclip,1,1199,NaN,truck,oven,NaN,oven9-knife3.png
hycoclip,1,1200,NaN,truck,oven,NaN,oven9-oven1.png
hycoclip,1,1201,NaN,truck,truck,NaN,truck1-bear1.png
hycoclip,1,1202,NaN,truck,truck,NaN,truck1-bicycle3.png
hycoclip,1,1203,NaN,truck,truck,NaN,truck1-bird1.png
hycoclip,1,1204,NaN,truck,truck,NaN,truck1-car3.png
hycoclip,1,1205,NaN,truck,truck,NaN,truck1-cat1.png
hycoclip,1,1206,NaN,truck,truck,NaN,truck1-chair2.png
hycoclip,1,1207,NaN,truck,truck,NaN,truck1-clock3.png
hycoclip,1,1208,NaN,truck,truck,NaN,truck1-dog1.png
hycoclip,1,1209,NaN,truck,truck,NaN,truck1-knife1.png
hycoclip,1,1210,NaN,truck,truck,NaN,truck10-airplane1.png
hycoclip,1,1211,NaN,truck,truck,NaN,truck10-bicycle1.png
hycoclip,1,1212,NaN,truck,truck,NaN,truck10-car3.png
hycoclip,1,1213,NaN,truck,truck,NaN,truck10-clock1.png
hycoclip,1,1214,NaN,truck,truck,NaN,truck10-elephant3.png
hycoclip,1,1215,NaN,truck,truck,NaN,truck10-truck3.png
hycoclip,1,1216,NaN,truck,truck,NaN,truck2-airplane3.png
hycoclip,1,1217,NaN,truck,truck,NaN,truck2-bicycle2.png
hycoclip,1,1218,NaN,truck,truck,NaN,truck2-bird2.png
hycoclip,1,1219,NaN,truck,truck,NaN,truck2-boat3.png
hycoclip,1,1220,NaN,truck,truck,NaN,truck2-bottle3.png
hycoclip,1,1221,NaN,truck,truck,NaN,truck2-car3.png
hycoclip,1,1222,NaN,truck,truck,NaN,truck2-chair1.png
hycoclip,1,1223,NaN,truck,truck,NaN,truck2-clock1.png
hycoclip,1,1224,NaN,truck,truck,NaN,truck2-elephant1.png
hycoclip,1,1225,NaN,truck,truck,NaN,truck2-keyboard1.png
hycoclip,1,1226,NaN,truck,truck,NaN,truck2-oven3.png
hycoclip,1,1227,NaN,truck,truck,NaN,truck3-bear3.png
hycoclip,1,1228,NaN,truck,truck,NaN,truck3-bicycle1.png
hycoclip,1,1229,NaN,truck,truck,NaN,truck3-bird2.png
hycoclip,1,1230,NaN,truck,truck,NaN,truck3-car3.png
hycoclip,1,1231,NaN,truck,truck,NaN,truck3-cat1.png
hycoclip,1,1232,NaN,truck,truck,NaN,truck3-chair2.png
hycoclip,1,1233,NaN,truck,truck,NaN,truck3-clock3.png
hycoclip,1,1234,NaN,truck,truck,NaN,truck3-dog3.png
hycoclip,1,1235,NaN,truck,truck,NaN,truck3-keyboard3.png
hycoclip,1,1236,NaN,truck,truck,NaN,truck3-knife2.png
hycoclip,1,1237,NaN,truck,truck,NaN,truck3-oven2.png
hycoclip,1,1238,NaN,truck,truck,NaN,truck4-airplane3.png
hycoclip,1,1239,NaN,truck,truck,NaN,truck4-bear1.png
hycoclip,1,1240,NaN,truck,truck,NaN,truck4-boat3.png
hycoclip,1,1241,NaN,truck,truck,NaN,truck4-bottle2.png
hycoclip,1,1242,NaN,truck,truck,NaN,truck4-knife1.png
hycoclip,1,1243,NaN,truck,truck,NaN,truck4-oven2.png
hycoclip,1,1244,NaN,truck,truck,NaN,truck5-airplane2.png
hycoclip,1,1245,NaN,truck,truck,NaN,truck5-bird2.png
hycoclip,1,1246,NaN,truck,truck,NaN,truck5-car1.png
hycoclip,1,1247,NaN,truck,truck,NaN,truck5-cat3.png
hycoclip,1,1248,NaN,truck,truck,NaN,truck5-dog3.png
hycoclip,1,1249,NaN,truck,truck,NaN,truck5-keyboard1.png
hycoclip,1,1250,NaN,truck,truck,NaN,truck5-knife3.png
hycoclip,1,1251,NaN,truck,truck,NaN,truck5-truck1.png
hycoclip,1,1252,NaN,truck,truck,NaN,truck6-bear2.png
hycoclip,1,1253,NaN,truck,truck,NaN,truck6-bicycle1.png
hycoclip,1,1254,NaN,truck,truck,NaN,truck6-boat2.png
hycoclip,1,1255,NaN,truck,truck,NaN,truck6-bottle3.png
hycoclip,1,1256,NaN,truck,truck,NaN,truck6-cat2.png
hycoclip,1,1257,NaN,truck,truck,NaN,truck6-clock2.png
hycoclip,1,1258,NaN,truck,truck,NaN,truck6-dog2.png
hycoclip,1,1259,NaN,truck,truck,NaN,truck6-knife2.png
hycoclip,1,1260,NaN,truck,truck,NaN,truck6-oven3.png
hycoclip,1,1261,NaN,truck,truck,NaN,truck6-truck2.png
hycoclip,1,1262,NaN,truck,truck,NaN,truck7-bear2.png
hycoclip,1,1263,NaN,truck,truck,NaN,truck7-bird2.png
hycoclip,1,1264,NaN,truck,truck,NaN,truck7-boat1.png
hycoclip,1,1265,NaN,truck,truck,NaN,truck7-chair2.png
hycoclip,1,1266,NaN,truck,truck,NaN,truck7-elephant2.png
hycoclip,1,1267,NaN,truck,truck,NaN,truck7-keyboard3.png
hycoclip,1,1268,NaN,truck,truck,NaN,truck7-oven2.png
hycoclip,1,1269,NaN,truck,truck,NaN,truck7-truck2.png
hycoclip,1,1270,NaN,truck,truck,NaN,truck8-bottle2.png
hycoclip,1,1271,NaN,truck,truck,NaN,truck8-cat2.png
hycoclip,1,1272,NaN,truck,truck,NaN,truck8-dog3.png
hycoclip,1,1273,NaN,truck,truck,NaN,truck8-elephant1.png
hycoclip,1,1274,NaN,truck,truck,NaN,truck8-keyboard2.png
hycoclip,1,1275,NaN,truck,truck,NaN,truck9-airplane2.png
hycoclip,1,1276,NaN,truck,truck,NaN,truck9-boat3.png
hycoclip,1,1277,NaN,truck,truck,NaN,truck9-bottle2.png
hycoclip,1,1278,NaN,truck,truck,NaN,truck9-chair3.png
hycoclip,1,1279,NaN,truck,truck,NaN,truck9-elephant1.png
hycoclip,1,1280,NaN,truck,truck,NaN,truck9-truck3.png
