subj,session,trial,rt,object_response,category,condition,imagename
hycoclip,1,1,NaN,keyboard,airplane,NaN,airplane1-bicycle2.png
hycoclip,1,2,NaN,clock,airplane,NaN,airplane1-chair2.png
hycoclip,1,3,NaN,clock,airplane,NaN,airplane1-clock1.png
hycoclip,1,4,NaN,chair,airplane,NaN,airplane1-elephant1.png
hycoclip,1,5,NaN,clock,airplane,NaN,airplane10-airplane1.png
hycoclip,1,6,NaN,clock,airplane,NaN,airplane10-bear3.png
hycoclip,1,7,NaN,airplane,airplane,NaN,airplane10-boat3.png
hycoclip,1,8,NaN,airplane,airplane,NaN,airplane10-car3.png
hycoclip,1,9,NaN,airplane,airplane,NaN,airplane10-cat2.png
hycoclip,1,10,NaN,airplane,airplane,NaN,airplane10-dog3.png
hycoclip,1,11,NaN,boat,airplane,NaN,airplane10-elephant1.png
hycoclip,1,12,NaN,airplane,airplane,NaN,airplane10-knife3.png
hycoclip,1,13,NaN,clock,airplane,NaN,airplane10-oven2.png
hycoclip,1,14,NaN,airplane,airplane,NaN,airplane10-truck1.png
hycoclip,1,15,NaN,clock,airplane,NaN,airplane2-bear1.png
hycoclip,1,16,NaN,clock,airplane,NaN,airplane2-bicycle1.png
hycoclip,1,17,NaN,airplane,airplane,NaN,airplane2-bird3.png
hycoclip,1,18,NaN,clock,airplane,NaN,airplane2-bottle1.png
hycoclip,1,19,NaN,airplane,airplane,NaN,airplane2-cat1.png
hycoclip,1,20,NaN,clock,airplane,NaN,airplane2-dog1.png
hycoclip,1,21,NaN,airplane,airplane,NaN,airplane3-airplane2.png
hycoclip,1,22,NaN,airplane,airplane,NaN,airplane3-car1.png
hycoclip,1,23,NaN,airplane,airplane,NaN,airplane3-cat1.png
hycoclip,1,24,NaN,airplane,airplane,NaN,airplane3-chair3.png
hycoclip,1,25,NaN,clock,airplane,NaN,airplane3-clock1.png
hycoclip,1,26,NaN,oven,airplane,NaN,airplane3-dog1.png
hycoclip,1,27,NaN,chair,airplane,NaN,airplane3-elephant1.png
hycoclip,1,28,NaN,clock,airplane,NaN,airplane3-keyboard2.png
hycoclip,1,29,NaN,knife,airplane,NaN,airplane3-oven1.png
hycoclip,1,30,NaN,clock,airplane,NaN,airplane4-airplane1.png
hycoclip,1,31,NaN,airplane,airplane,NaN,airplane4-bear3.png
hycoclip,1,32,NaN,airplane,airplane,NaN,airplane4-bicycle2.png
hycoclip,1,33,NaN,airplane,airplane,NaN,airplane4-bird3.png
hycoclip,1,34,NaN,airplane,airplane,NaN,airplane4-boat3.png
hycoclip,1,35,NaN,airplane,airplane,NaN,airplane4-bottle1.png
hycoclip,1,36,NaN,airplane,airplane,NaN,airplane4-car1.png
hycoclip,1,37,NaN,airplane,airplane,NaN,airplane4-cat3.png
hycoclip,1,38,NaN,clock,airplane,NaN,airplane4-dog2.png
hycoclip,1,39,NaN,chair,airplane,NaN,airplane4-elephant1.png
hycoclip,1,40,NaN,car,airplane,NaN,airplane4-keyboard3.png
hycoclip,1,41,NaN,airplane,airplane,NaN,airplane4-knife1.png
hycoclip,1,42,NaN,oven,airplane,NaN,airplane4-truck2.png
hycoclip,1,43,NaN,airplane,airplane,NaN,airplane5-bear2.png
hycoclip,1,44,NaN,airplane,airplane,NaN,airplane5-bicycle1.png
hycoclip,1,45,NaN,airplane,airplane,NaN,airplane5-bird2.png
hycoclip,1,46,NaN,airplane,airplane,NaN,airplane5-boat3.png
hycoclip,1,47,NaN,clock,airplane,NaN,airplane5-bottle3.png
hycoclip,1,48,NaN,airplane,airplane,NaN,airplane5-chair3.png
hycoclip,1,49,NaN,airplane,airplane,NaN,airplane5-dog3.png
hycoclip,1,50,NaN,clock,airplane,NaN,airplane5-knife1.png
hycoclip,1,51,NaN,clock,airplane,NaN,airplane5-oven3.png
hycoclip,1,52,NaN,airplane,airplane,NaN,airplane6-bear3.png
hycoclip,1,53,NaN,clock,airplane,NaN,airplane6-bottle2.png
hycoclip,1,54,NaN,airplane,airplane,NaN,airplane6-chair3.png
hycoclip,1,55,NaN,keyboard,airplane,NaN,airplane6-keyboard3.png
hycoclip,1,56,NaN,airplane,airplane,NaN,airplane6-knife1.png
hycoclip,1,57,NaN,clock,airplane,NaN,airplane7-airplane3.png
hycoclip,1,58,NaN,clock,airplane,NaN,airplane7-bird3.png
hycoclip,1,59,NaN,clock,airplane,NaN,airplane7-boat2.png
hycoclip,1,60,NaN,airplane,airplane,NaN,airplane7-bottle3.png
hycoclip,1,61,NaN,airplane,airplane,NaN,airplane7-car1.png
hycoclip,1,62,NaN,airplane,airplane,NaN,airplane7-cat3.png
hycoclip,1,63,NaN,clock,airplane,NaN,airplane7-clock3.png
hycoclip,1,64,NaN,keyboard,airplane,NaN,airplane7-keyboard1.png
hycoclip,1,65,NaN,clock,airplane,NaN,airplane7-truck1.png
hycoclip,1,66,NaN,keyboard,airplane,NaN,airplane8-bicycle3.png
hycoclip,1,67,NaN,airplane,airplane,NaN,airplane8-bird1.png
hycoclip,1,68,NaN,airplane,airplane,NaN,airplane8-chair1.png
hycoclip,1,69,NaN,clock,airplane,NaN,airplane8-clock2.png
hycoclip,1,70,NaN,clock,airplane,NaN,airplane8-elephant3.png
hycoclip,1,71,NaN,clock,airplane,NaN,airplane8-oven2.png
hycoclip,1,72,NaN,clock,airplane,NaN,airplane8-truck3.png
hycoclip,1,73,NaN,airplane,airplane,NaN,airplane9-airplane2.png
hycoclip,1,74,NaN,airplane,airplane,NaN,airplane9-boat1.png
hycoclip,1,75,NaN,clock,airplane,NaN,airplane9-car2.png
hycoclip,1,76,NaN,clock,airplane,NaN,airplane9-clock1.png
hycoclip,1,77,NaN,clock,airplane,NaN,airplane9-keyboard2.png
hycoclip,1,78,NaN,knife,airplane,NaN,airplane9-knife3.png
hycoclip,1,79,NaN,clock,airplane,NaN,airplane9-oven2.png
hycoclip,1,80,NaN,clock,airplane,NaN,airplane9-truck1.png
hycoclip,1,81,NaN,airplane,bear,NaN,bear1-airplane3.png
hycoclip,1,82,NaN,oven,bear,NaN,bear1-bear3.png
hycoclip,1,83,NaN,clock,bear,NaN,bear1-bicycle3.png
hycoclip,1,84,NaN,chair,bear,NaN,bear1-bird2.png
hycoclip,1,85,NaN,keyboard,bear,NaN,bear1-chair2.png
hycoclip,1,86,NaN,clock,bear,NaN,bear1-clock2.png
hycoclip,1,87,NaN,chair,bear,NaN,bear1-elephant1.png
hycoclip,1,88,NaN,chair,bear,NaN,bear10-bear2.png
hycoclip,1,89,NaN,keyboard,bear,NaN,bear10-bottle1.png
hycoclip,1,90,NaN,airplane,bear,NaN,bear10-car2.png
hycoclip,1,91,NaN,bird,bear,NaN,bear10-cat2.png
hycoclip,1,92,NaN,keyboard,bear,NaN,bear10-chair2.png
hycoclip,1,93,NaN,clock,bear,NaN,bear10-clock1.png
hycoclip,1,94,NaN,airplane,bear,NaN,bear10-elephant1.png
hycoclip,1,95,NaN,clock,bear,NaN,bear10-keyboard3.png
hycoclip,1,96,NaN,clock,bear,NaN,bear10-knife2.png
hycoclip,1,97,NaN,boat,bear,NaN,bear10-oven1.png
hycoclip,1,98,NaN,airplane,bear,NaN,bear10-truck1.png
hycoclip,1,99,NaN,clock,bear,NaN,bear2-airplane1.png
hycoclip,1,100,NaN,airplane,bear,NaN,bear2-bird3.png
hycoclip,1,101,NaN,clock,bear,NaN,bear2-car2.png
hycoclip,1,102,NaN,bird,bear,NaN,bear2-cat2.png
hycoclip,1,103,NaN,oven,bear,NaN,bear2-dog1.png
hycoclip,1,104,NaN,airplane,bear,NaN,bear2-elephant1.png
hycoclip,1,105,NaN,clock,bear,NaN,bear2-keyboard2.png
hycoclip,1,106,NaN,keyboard,bear,NaN,bear2-knife2.png
hycoclip,1,107,NaN,airplane,bear,NaN,bear2-oven1.png
hycoclip,1,108,NaN,airplane,bear,NaN,bear3-airplane1.png
hycoclip,1,109,NaN,keyboard,bear,NaN,bear3-bicycle2.png
hycoclip,1,110,NaN,clock,bear,NaN,bear3-bird3.png
hycoclip,1,111,NaN,clock,bear,NaN,bear3-car2.png
hycoclip,1,112,NaN,airplane,bear,NaN,bear3-cat1.png
hycoclip,1,113,NaN,clock,bear,NaN,bear3-chair2.png
hycoclip,1,114,NaN,airplane,bear,NaN,bear3-dog3.png
hycoclip,1,115,NaN,clock,bear,NaN,bear3-keyboard2.png
hycoclip,1,116,NaN,airplane,bear,NaN,bear3-truck3.png
hycoclip,1,117,NaN,clock,bear,NaN,bear4-boat2.png
hycoclip,1,118,NaN,airplane,bear,NaN,bear4-car3.png
hycoclip,1,119,NaN,airplane,bear,NaN,bear4-cat3.png
hycoclip,1,120,NaN,clock,bear,NaN,bear4-clock3.png
hycoclip,1,121,NaN,chair,bear,NaN,bear4-elephant2.png
hycoclip,1,122,NaN,knife,bear,NaN,bear4-keyboard3.png
hycoclip,1,123,NaN,airplane,bear,NaN,bear4-knife1.png
hycoclip,1,124,NaN,clock,bear,NaN,bear4-oven2.png
hycoclip,1,125,NaN,airplane,bear,NaN,bear4-truck3.png
hycoclip,1,126,NaN,clock,bear,NaN,bear5-airplane3.png
hycoclip,1,127,NaN,oven,bear,NaN,bear5-bicycle3.png
hycoclip,1,128,NaN,airplane,bear,NaN,bear5-bird1.png
hycoclip,1,129,NaN,oven,bear,NaN,bear5-boat2.png
hycoclip,1,130,NaN,airplane,bear,NaN,bear5-bottle1.png
hycoclip,1,131,NaN,knife,bear,NaN,bear5-chair1.png
hycoclip,1,132,NaN,airplane,bear,NaN,bear5-oven3.png
hycoclip,1,133,NaN,oven,bear,NaN,bear6-bear1.png
hycoclip,1,134,NaN,airplane,bear,NaN,bear6-bird2.png
hycoclip,1,135,NaN,airplane,bear,NaN,bear6-boat3.png
hycoclip,1,136,NaN,clock,bear,NaN,bear6-bottle3.png
hycoclip,1,137,NaN,clock,bear,NaN,bear6-car2.png
hycoclip,1,138,NaN,airplane,bear,NaN,bear6-cat3.png
hycoclip,1,139,NaN,car,bear,NaN,bear6-chair1.png
hycoclip,1,140,NaN,clock,bear,NaN,bear6-clock1.png
hycoclip,1,141,NaN,oven,bear,NaN,bear7-bear2.png
hycoclip,1,142,NaN,chair,bear,NaN,bear7-bicycle2.png
hycoclip,1,143,NaN,clock,bear,NaN,bear7-clock1.png
hycoclip,1,144,NaN,oven,bear,NaN,bear7-dog3.png
hycoclip,1,145,NaN,keyboard,bear,NaN,bear7-oven3.png
hycoclip,1,146,NaN,oven,bear,NaN,bear7-truck1.png
hycoclip,1,147,NaN,clock,bear,NaN,bear8-airplane1.png
hycoclip,1,148,NaN,oven,bear,NaN,bear8-bear1.png
hycoclip,1,149,NaN,oven,bear,NaN,bear8-bicycle3.png
hycoclip,1,150,NaN,clock,bear,NaN,bear8-boat2.png
hycoclip,1,151,NaN,clock,bear,NaN,bear8-bottle1.png
hycoclip,1,152,NaN,oven,bear,NaN,bear8-dog1.png
hycoclip,1,153,NaN,clock,bear,NaN,bear8-elephant2.png
hycoclip,1,154,NaN,clock,bear,NaN,bear8-knife3.png
hycoclip,1,155,NaN,airplane,bear,NaN,bear8-truck3.png
hycoclip,1,156,NaN,keyboard,bear,NaN,bear9-boat2.png
hycoclip,1,157,NaN,chair,bear,NaN,bear9-bottle2.png
hycoclip,1,158,NaN,oven,bear,NaN,bear9-dog1.png
hycoclip,1,159,NaN,clock,bear,NaN,bear9-keyboard3.png
hycoclip,1,160,NaN,airplane,bear,NaN,bear9-knife2.png
hycoclip,1,161,NaN,airplane,bicycle,NaN,bicycle1-airplane2.png
hycoclip,1,162,NaN,oven,bicycle,NaN,bicycle1-bear1.png
hycoclip,1,163,NaN,clock,bicycle,NaN,bicycle1-bicycle3.png
hycoclip,1,164,NaN,airplane,bicycle,NaN,bicycle1-bird1.png
hycoclip,1,165,NaN,airplane,bicycle,NaN,bicycle1-boat3.png
hycoclip,1,166,NaN,clock,bicycle,NaN,bicycle1-bottle3.png
hycoclip,1,167,NaN,knife,bicycle,NaN,bicycle1-chair1.png
hycoclip,1,168,NaN,clock,bicycle,NaN,bicycle1-clock3.png
hycoclip,1,169,NaN,airplane,bicycle,NaN,bicycle1-dog3.png
hycoclip,1,170,NaN,airplane,bicycle,NaN,bicycle1-elephant2.png
hycoclip,1,171,NaN,clock,bicycle,NaN,bicycle1-knife3.png
hycoclip,1,172,NaN,airplane,bicycle,NaN,bicycle1-oven1.png
hycoclip,1,173,NaN,clock,bicycle,NaN,bicycle1-truck1.png
hycoclip,1,174,NaN,airplane,bicycle,NaN,bicycle10-airplane2.png
hycoclip,1,175,NaN,airplane,bicycle,NaN,bicycle10-boat3.png
hycoclip,1,176,NaN,clock,bicycle,NaN,bicycle10-clock2.png
hycoclip,1,177,NaN,airplane,bicycle,NaN,bicycle10-dog3.png
hycoclip,1,178,NaN,chair,bicycle,NaN,bicycle10-elephant2.png
hycoclip,1,179,NaN,airplane,bicycle,NaN,bicycle2-bicycle1.png
hycoclip,1,180,NaN,airplane,bicycle,NaN,bicycle2-bird3.png
hycoclip,1,181,NaN,clock,bicycle,NaN,bicycle2-bottle1.png
hycoclip,1,182,NaN,clock,bicycle,NaN,bicycle2-car2.png
hycoclip,1,183,NaN,oven,bicycle,NaN,bicycle2-dog1.png
hycoclip,1,184,NaN,clock,bicycle,NaN,bicycle2-keyboard2.png
hycoclip,1,185,NaN,keyboard,bicycle,NaN,bicycle2-knife2.png
hycoclip,1,186,NaN,airplane,bicycle,NaN,bicycle3-bird1.png
hycoclip,1,187,NaN,airplane,bicycle,NaN,bicycle3-elephant2.png
hycoclip,1,188,NaN,keyboard,bicycle,NaN,bicycle3-keyboard1.png
hycoclip,1,189,NaN,airplane,bicycle,NaN,bicycle3-oven3.png
hycoclip,1,190,NaN,knife,bicycle,NaN,bicycle3-truck3.png
hycoclip,1,191,NaN,airplane,bicycle,NaN,bicycle4-airplane1.png
hycoclip,1,192,NaN,clock,bicycle,NaN,bicycle4-bicycle3.png
hycoclip,1,193,NaN,airplane,bicycle,NaN,bicycle4-boat1.png
hycoclip,1,194,NaN,clock,bicycle,NaN,bicycle4-bottle1.png
hycoclip,1,195,NaN,clock,bicycle,NaN,bicycle4-car2.png
hycoclip,1,196,NaN,airplane,bicycle,NaN,bicycle4-cat1.png
hycoclip,1,197,NaN,clock,bicycle,NaN,bicycle4-chair2.png
hycoclip,1,198,NaN,clock,bicycle,NaN,bicycle4-clock3.png
hycoclip,1,199,NaN,airplane,bicycle,NaN,bicycle4-keyboard3.png
hycoclip,1,200,NaN,clock,bicycle,NaN,bicycle4-knife3.png
hycoclip,1,201,NaN,airplane,bicycle,NaN,bicycle4-oven3.png
hycoclip,1,202,NaN,airplane,bicycle,NaN,bicycle4-truck3.png
hycoclip,1,203,NaN,airplane,bicycle,NaN,bicycle5-bear1.png
hycoclip,1,204,NaN,clock,bicycle,NaN,bicycle5-bottle3.png
hycoclip,1,205,NaN,clock,bicycle,NaN,bicycle5-car3.png
hycoclip,1,206,NaN,airplane,bicycle,NaN,bicycle5-cat1.png
hycoclip,1,207,NaN,clock,bicycle,NaN,bicycle5-chair2.png
hycoclip,1,208,NaN,airplane,bicycle,NaN,bicycle5-dog2.png
hycoclip,1,209,NaN,chair,bicycle,NaN,bicycle5-elephant1.png
hycoclip,1,210,NaN,keyboard,bicycle,NaN,bicycle5-keyboard3.png
hycoclip,1,211,NaN,clock,bicycle,NaN,bicycle5-oven3.png
hycoclip,1,212,NaN,airplane,bicycle,NaN,bicycle6-airplane2.png
hycoclip,1,213,NaN,clock,bicycle,NaN,bicycle6-bicycle3.png
hycoclip,1,214,NaN,clock,bicycle,NaN,bicycle6-boat2.png
hycoclip,1,215,NaN,clock,bicycle,NaN,bicycle6-car2.png
hycoclip,1,216,NaN,airplane,bicycle,NaN,bicycle6-cat1.png
hycoclip,1,217,NaN,clock,bicycle,NaN,bicycle6-dog2.png
hycoclip,1,218,NaN,airplane,bicycle,NaN,bicycle7-bear2.png
hycoclip,1,219,NaN,clock,bicycle,NaN,bicycle7-bicycle2.png
hycoclip,1,220,NaN,airplane,bicycle,NaN,bicycle7-cat1.png
hycoclip,1,221,NaN,clock,bicycle,NaN,bicycle7-clock3.png
hycoclip,1,222,NaN,clock,bicycle,NaN,bicycle7-elephant2.png
hycoclip,1,223,NaN,clock,bicycle,NaN,bicycle7-knife2.png
hycoclip,1,224,NaN,airplane,bicycle,NaN,bicycle7-oven1.png
hycoclip,1,225,NaN,chair,bicycle,NaN,bicycle7-truck3.png
hycoclip,1,226,NaN,airplane,bicycle,NaN,bicycle8-bear2.png
hycoclip,1,227,NaN,airplane,bicycle,NaN,bicycle8-bird2.png
hycoclip,1,228,NaN,oven,bicycle,NaN,bicycle8-boat1.png
hycoclip,1,229,NaN,clock,bicycle,NaN,bicycle8-chair2.png
hycoclip,1,230,NaN,clock,bicycle,NaN,bicycle8-clock3.png
hycoclip,1,231,NaN,clock,bicycle,NaN,bicycle8-truck1.png
hycoclip,1,232,NaN,airplane,bicycle,NaN,bicycle9-airplane2.png
hycoclip,1,233,NaN,oven,bicycle,NaN,bicycle9-bear1.png
hycoclip,1,234,NaN,airplane,bicycle,NaN,bicycle9-bird3.png
hycoclip,1,235,NaN,clock,bicycle,NaN,bicycle9-bottle1.png
hycoclip,1,236,NaN,airplane,bicycle,NaN,bicycle9-car1.png
hycoclip,1,237,NaN,airplane,bicycle,NaN,bicycle9-cat3.png
hycoclip,1,238,NaN,knife,bicycle,NaN,bicycle9-chair1.png
hycoclip,1,239,NaN,clock,bicycle,NaN,bicycle9-keyboard3.png
hycoclip,1,240,NaN,clock,bicycle,NaN,bicycle9-knife3.png
hycoclip,1,241,NaN,airplane,bird,NaN,bird1-airplane2.png
hycoclip,1,242,NaN,clock,bird,NaN,bird1-bear1.png
hycoclip,1,243,NaN,airplane,bird,NaN,bird1-bicycle2.png
hycoclip,1,244,NaN,airplane,bird,NaN,bird1-boat1.png
hycoclip,1,245,NaN,keyboard,bird,NaN,bird1-chair2.png
hycoclip,1,246,NaN,clock,bird,NaN,bird1-clock3.png
hycoclip,1,247,NaN,clock,bird,NaN,bird1-elephant2.png
hycoclip,1,248,NaN,clock,bird,NaN,bird1-keyboard3.png
hycoclip,1,249,NaN,clock,bird,NaN,bird1-knife3.png
hycoclip,1,250,NaN,airplane,bird,NaN,bird1-oven1.png
hycoclip,1,251,NaN,airplane,bird,NaN,bird1-truck1.png
hycoclip,1,252,NaN,airplane,bird,NaN,bird10-bear2.png
hycoclip,1,253,NaN,clock,bird,NaN,bird10-bicycle1.png
hycoclip,1,254,NaN,chair,bird,NaN,bird10-bird2.png
hycoclip,1,255,NaN,airplane,bird,NaN,bird10-cat1.png
hycoclip,1,256,NaN,knife,bird,NaN,bird10-chair1.png
hycoclip,1,257,NaN,clock,bird,NaN,bird10-clock1.png
hycoclip,1,258,NaN,airplane,bird,NaN,bird10-elephant2.png
hycoclip,1,259,NaN,clock,bird,NaN,bird2-airplane3.png
hycoclip,1,260,NaN,airplane,bird,NaN,bird2-bird2.png
hycoclip,1,261,NaN,oven,bird,NaN,bird2-car3.png
hycoclip,1,262,NaN,clock,bird,NaN,bird2-clock3.png
hycoclip,1,263,NaN,clock,bird,NaN,bird2-dog2.png
hycoclip,1,264,NaN,clock,bird,NaN,bird2-knife1.png
hycoclip,1,265,NaN,oven,bird,NaN,bird3-bear3.png
hycoclip,1,266,NaN,airplane,bird,NaN,bird3-bird2.png
hycoclip,1,267,NaN,airplane,bird,NaN,bird3-boat3.png
hycoclip,1,268,NaN,airplane,bird,NaN,bird3-bottle2.png
hycoclip,1,269,NaN,airplane,bird,NaN,bird3-cat1.png
hycoclip,1,270,NaN,oven,bird,NaN,bird3-dog1.png
hycoclip,1,271,NaN,airplane,bird,NaN,bird3-knife3.png
hycoclip,1,272,NaN,airplane,bird,NaN,bird3-oven1.png
hycoclip,1,273,NaN,airplane,bird,NaN,bird3-truck3.png
hycoclip,1,274,NaN,clock,bird,NaN,bird4-airplane1.png
hycoclip,1,275,NaN,chair,bird,NaN,bird4-bicycle2.png
hycoclip,1,276,NaN,clock,bird,NaN,bird4-cat3.png
hycoclip,1,277,NaN,clock,bird,NaN,bird4-clock1.png
hycoclip,1,278,NaN,airplane,bird,NaN,bird4-dog3.png
hycoclip,1,279,NaN,clock,bird,NaN,bird5-airplane3.png
hycoclip,1,280,NaN,oven,bird,NaN,bird5-bear3.png
hycoclip,1,281,NaN,oven,bird,NaN,bird5-bicycle1.png
hycoclip,1,282,NaN,airplane,bird,NaN,bird5-bird1.png
hycoclip,1,283,NaN,clock,bird,NaN,bird5-car2.png
hycoclip,1,284,NaN,airplane,bird,NaN,bird5-cat2.png
hycoclip,1,285,NaN,airplane,bird,NaN,bird5-chair1.png
hycoclip,1,286,NaN,airplane,bird,NaN,bird5-dog2.png
hycoclip,1,287,NaN,keyboard,bird,NaN,bird5-keyboard2.png
hycoclip,1,288,NaN,airplane,bird,NaN,bird5-oven3.png
hycoclip,1,289,NaN,oven,bird,NaN,bird5-truck2.png
hycoclip,1,290,NaN,airplane,bird,NaN,bird6-airplane2.png
hycoclip,1,291,NaN,clock,bird,NaN,bird6-boat2.png
hycoclip,1,292,NaN,clock,bird,NaN,bird6-bottle3.png
hycoclip,1,293,NaN,airplane,bird,NaN,bird6-car3.png
hycoclip,1,294,NaN,airplane,bird,NaN,bird6-elephant2.png
hycoclip,1,295,NaN,airplane,bird,NaN,bird6-oven1.png
hycoclip,1,296,NaN,airplane,bird,NaN,bird6-truck2.png
hycoclip,1,297,NaN,airplane,bird,NaN,bird7-bird2.png
hycoclip,1,298,NaN,airplane,bird,NaN,bird7-boat1.png
hycoclip,1,299,NaN,airplane,bird,NaN,bird7-bottle1.png
hycoclip,1,300,NaN,clock,bird,NaN,bird7-car2.png
hycoclip,1,301,NaN,clock,bird,NaN,bird7-cat3.png
hycoclip,1,302,NaN,knife,bird,NaN,bird7-keyboard3.png
hycoclip,1,303,NaN,keyboard,bird,NaN,bird7-knife2.png
hycoclip,1,304,NaN,keyboard,bird,NaN,bird7-oven3.png
hycoclip,1,305,NaN,oven,bird,NaN,bird7-truck2.png
hycoclip,1,306,NaN,airplane,bird,NaN,bird8-boat3.png
hycoclip,1,307,NaN,airplane,bird,NaN,bird8-bottle1.png
hycoclip,1,308,NaN,airplane,bird,NaN,bird8-car2.png
hycoclip,1,309,NaN,airplane,bird,NaN,bird8-chair1.png
hycoclip,1,310,NaN,clock,bird,NaN,bird8-clock1.png
hycoclip,1,311,NaN,airplane,bird,NaN,bird8-elephant1.png
hycoclip,1,312,NaN,keyboard,bird,NaN,bird8-keyboard2.png
hycoclip,1,313,NaN,airplane,bird,NaN,bird8-knife2.png
hycoclip,1,314,NaN,airplane,bird,NaN,bird9-bear3.png
hycoclip,1,315,NaN,keyboard,bird,NaN,bird9-bicycle3.png
hycoclip,1,316,NaN,clock,bird,NaN,bird9-bottle3.png
hycoclip,1,317,NaN,knife,bird,NaN,bird9-chair1.png
hycoclip,1,318,NaN,clock,bird,NaN,bird9-dog2.png
hycoclip,1,319,NaN,oven,bird,NaN,bird9-elephant2.png
hycoclip,1,320,NaN,keyboard,bird,NaN,bird9-keyboard1.png
hycoclip,1,321,NaN,oven,boat,NaN,boat1-bear1.png
hycoclip,1,322,NaN,oven,boat,NaN,boat1-bicycle2.png
hycoclip,1,323,NaN,airplane,boat,NaN,boat1-bird3.png
hycoclip,1,324,NaN,airplane,boat,NaN,boat1-car2.png
hycoclip,1,325,NaN,airplane,boat,NaN,boat1-chair3.png
hycoclip,1,326,NaN,clock,boat,NaN,boat1-elephant3.png
hycoclip,1,327,NaN,keyboard,boat,NaN,boat1-keyboard3.png
hycoclip,1,328,NaN,airplane,boat,NaN,boat1-oven1.png
hycoclip,1,329,NaN,airplane,boat,NaN,boat1-truck3.png
hycoclip,1,330,NaN,airplane,boat,NaN,boat10-bear3.png
hycoclip,1,331,NaN,airplane,boat,NaN,boat10-boat3.png
hycoclip,1,332,NaN,airplane,boat,NaN,boat10-cat1.png
hycoclip,1,333,NaN,airplane,boat,NaN,boat10-oven1.png
hycoclip,1,334,NaN,clock,boat,NaN,boat10-truck1.png
hycoclip,1,335,NaN,keyboard,boat,NaN,boat2-airplane1.png
hycoclip,1,336,NaN,oven,boat,NaN,boat2-bear3.png
hycoclip,1,337,NaN,airplane,boat,NaN,boat2-bird1.png
hycoclip,1,338,NaN,airplane,boat,NaN,boat2-bottle2.png
hycoclip,1,339,NaN,keyboard,boat,NaN,boat2-keyboard1.png
hycoclip,1,340,NaN,clock,boat,NaN,boat2-oven3.png
hycoclip,1,341,NaN,airplane,boat,NaN,boat3-airplane2.png
hycoclip,1,342,NaN,airplane,boat,NaN,boat3-bicycle2.png
hycoclip,1,343,NaN,airplane,boat,NaN,boat3-car3.png
hycoclip,1,344,NaN,clock,boat,NaN,boat3-cat3.png
hycoclip,1,345,NaN,airplane,boat,NaN,boat3-chair3.png
hycoclip,1,346,NaN,clock,boat,NaN,boat3-clock3.png
hycoclip,1,347,NaN,airplane,boat,NaN,boat3-dog3.png
hycoclip,1,348,NaN,clock,boat,NaN,boat3-keyboard2.png
hycoclip,1,349,NaN,oven,boat,NaN,boat4-bicycle3.png
hycoclip,1,350,NaN,airplane,boat,NaN,boat4-bird1.png
hycoclip,1,351,NaN,airplane,boat,NaN,boat4-boat3.png
hycoclip,1,352,NaN,clock,boat,NaN,boat4-bottle2.png
hycoclip,1,353,NaN,airplane,boat,NaN,boat4-car3.png
hycoclip,1,354,NaN,clock,boat,NaN,boat4-chair2.png
hycoclip,1,355,NaN,airplane,boat,NaN,boat4-dog2.png
hycoclip,1,356,NaN,airplane,boat,NaN,boat4-elephant2.png
hycoclip,1,357,NaN,airplane,boat,NaN,boat4-knife2.png
hycoclip,1,358,NaN,clock,boat,NaN,boat5-airplane1.png
hycoclip,1,359,NaN,clock,boat,NaN,boat5-bicycle3.png
hycoclip,1,360,NaN,airplane,boat,NaN,boat5-boat3.png
hycoclip,1,361,NaN,oven,boat,NaN,boat5-car3.png
hycoclip,1,362,NaN,clock,boat,NaN,boat5-clock3.png
hycoclip,1,363,NaN,airplane,boat,NaN,boat5-knife2.png
hycoclip,1,364,NaN,airplane,boat,NaN,boat6-airplane2.png
hycoclip,1,365,NaN,airplane,boat,NaN,boat6-bear1.png
hycoclip,1,366,NaN,keyboard,boat,NaN,boat6-bicycle2.png
hycoclip,1,367,NaN,clock,boat,NaN,boat6-bottle2.png
hycoclip,1,368,NaN,airplane,boat,NaN,boat6-car1.png
hycoclip,1,369,NaN,airplane,boat,NaN,boat6-cat1.png
hycoclip,1,370,NaN,clock,boat,NaN,boat6-clock2.png
hycoclip,1,371,NaN,oven,boat,NaN,boat6-dog1.png
hycoclip,1,372,NaN,chair,boat,NaN,boat6-elephant2.png
hycoclip,1,373,NaN,airplane,boat,NaN,boat6-knife2.png
hycoclip,1,374,NaN,clock,boat,NaN,boat6-truck3.png
hycoclip,1,375,NaN,clock,boat,NaN,boat7-boat2.png
hycoclip,1,376,NaN,airplane,boat,NaN,boat7-bottle1.png
hycoclip,1,377,NaN,clock,boat,NaN,boat7-cat3.png
hycoclip,1,378,NaN,knife,boat,NaN,boat7-chair1.png
hycoclip,1,379,NaN,clock,boat,NaN,boat7-clock3.png
hycoclip,1,380,NaN,knife,boat,NaN,boat7-elephant3.png
hycoclip,1,381,NaN,chair,boat,NaN,boat7-keyboard3.png
hycoclip,1,382,NaN,keyboard,boat,NaN,boat7-oven3.png
hycoclip,1,383,NaN,oven,boat,NaN,boat7-truck2.png
hycoclip,1,384,NaN,airplane,boat,NaN,boat8-bird2.png
hycoclip,1,385,NaN,airplane,boat,NaN,boat8-bottle1.png
hycoclip,1,386,NaN,airplane,boat,NaN,boat8-dog3.png
hycoclip,1,387,NaN,chair,boat,NaN,boat8-elephant1.png
hycoclip,1,388,NaN,airplane,boat,NaN,boat8-knife1.png
hycoclip,1,389,NaN,airplane,boat,NaN,boat8-oven1.png
hycoclip,1,390,NaN,airplane,boat,NaN,boat8-truck2.png
hycoclip,1,391,NaN,airplane,boat,NaN,boat9-airplane2.png
hycoclip,1,392,NaN,airplane,boat,NaN,boat9-bear3.png
hycoclip,1,393,NaN,airplane,boat,NaN,boat9-bird1.png
hycoclip,1,394,NaN,airplane,boat,NaN,boat9-boat3.png
hycoclip,1,395,NaN,clock,boat,NaN,boat9-cat3.png
hycoclip,1,396,NaN,airplane,boat,NaN,boat9-chair2.png
hycoclip,1,397,NaN,clock,boat,NaN,boat9-clock1.png
hycoclip,1,398,NaN,clock,boat,NaN,boat9-dog2.png
hycoclip,1,399,NaN,clock,boat,NaN,boat9-keyboard2.png
hycoclip,1,400,NaN,airplane,boat,NaN,boat9-knife2.png
hycoclip,1,401,NaN,airplane,bottle,NaN,bottle1-bear1.png
hycoclip,1,402,NaN,airplane,bottle,NaN,bottle1-bird3.png
hycoclip,1,403,NaN,airplane,bottle,NaN,bottle1-car1.png
hycoclip,1,404,NaN,airplane,bottle,NaN,bottle1-cat3.png
hycoclip,1,405,NaN,clock,bottle,NaN,bottle1-chair2.png
hycoclip,1,406,NaN,clock,bottle,NaN,bottle1-clock1.png
hycoclip,1,407,NaN,clock,bottle,NaN,bottle1-dog2.png
hycoclip,1,408,NaN,clock,bottle,NaN,bottle1-keyboard3.png
hycoclip,1,409,NaN,airplane,bottle,NaN,bottle10-bear2.png
hycoclip,1,410,NaN,airplane,bottle,NaN,bottle10-boat3.png
hycoclip,1,411,NaN,clock,bottle,NaN,bottle10-car1.png
hycoclip,1,412,NaN,clock,bottle,NaN,bottle10-clock2.png
hycoclip,1,413,NaN,clock,bottle,NaN,bottle10-dog1.png
hycoclip,1,414,NaN,airplane,bottle,NaN,bottle10-truck3.png
hycoclip,1,415,NaN,keyboard,bottle,NaN,bottle2-bottle3.png
hycoclip,1,416,NaN,oven,bottle,NaN,bottle2-car2.png
hycoclip,1,417,NaN,knife,bottle,NaN,bottle2-chair3.png
hycoclip,1,418,NaN,clock,bottle,NaN,bottle2-clock1.png
hycoclip,1,419,NaN,chair,bottle,NaN,bottle2-elephant1.png
hycoclip,1,420,NaN,clock,bottle,NaN,bottle2-knife3.png
hycoclip,1,421,NaN,airplane,bottle,NaN,bottle3-airplane2.png
hycoclip,1,422,NaN,airplane,bottle,NaN,bottle3-bear2.png
hycoclip,1,423,NaN,clock,bottle,NaN,bottle3-bicycle3.png
hycoclip,1,424,NaN,chair,bottle,NaN,bottle3-bird1.png
hycoclip,1,425,NaN,airplane,bottle,NaN,bottle3-boat3.png
hycoclip,1,426,NaN,clock,bottle,NaN,bottle3-bottle3.png
hycoclip,1,427,NaN,clock,bottle,NaN,bottle3-cat3.png
hycoclip,1,428,NaN,airplane,bottle,NaN,bottle3-chair3.png
hycoclip,1,429,NaN,knife,bottle,NaN,bottle3-knife3.png
hycoclip,1,430,NaN,airplane,bottle,NaN,bottle4-airplane1.png
hycoclip,1,431,NaN,clock,bottle,NaN,bottle4-bicycle1.png
hycoclip,1,432,NaN,clock,bottle,NaN,bottle4-car3.png
hycoclip,1,433,NaN,clock,bottle,NaN,bottle4-dog2.png
hycoclip,1,434,NaN,clock,bottle,NaN,bottle4-oven2.png
hycoclip,1,435,NaN,clock,bottle,NaN,bottle4-truck1.png
hycoclip,1,436,NaN,clock,bottle,NaN,bottle5-airplane1.png
hycoclip,1,437,NaN,airplane,bottle,NaN,bottle5-bird3.png
hycoclip,1,438,NaN,airplane,bottle,NaN,bottle5-boat1.png
hycoclip,1,439,NaN,airplane,bottle,NaN,bottle5-cat1.png
hycoclip,1,440,NaN,car,bottle,NaN,bottle5-chair1.png
hycoclip,1,441,NaN,clock,bottle,NaN,bottle5-clock3.png
hycoclip,1,442,NaN,airplane,bottle,NaN,bottle5-elephant1.png
hycoclip,1,443,NaN,clock,bottle,NaN,bottle5-keyboard2.png
hycoclip,1,444,NaN,airplane,bottle,NaN,bottle5-knife1.png
hycoclip,1,445,NaN,clock,bottle,NaN,bottle5-oven2.png
hycoclip,1,446,NaN,clock,bottle,NaN,bottle5-truck1.png
hycoclip,1,447,NaN,airplane,bottle,NaN,bottle6-airplane1.png
hycoclip,1,448,NaN,airplane,bottle,NaN,bottle6-bear2.png
hycoclip,1,449,NaN,clock,bottle,NaN,bottle6-bicycle3.png
hycoclip,1,450,NaN,keyboard,bottle,NaN,bottle6-bird1.png
hycoclip,1,451,NaN,airplane,bottle,NaN,bottle6-boat3.png
hycoclip,1,452,NaN,clock,bottle,NaN,bottle6-bottle3.png
hycoclip,1,453,NaN,clock,bottle,NaN,bottle6-chair2.png
hycoclip,1,454,NaN,airplane,bottle,NaN,bottle6-dog3.png
hycoclip,1,455,NaN,clock,bottle,NaN,bottle6-knife3.png
hycoclip,1,456,NaN,clock,bottle,NaN,bottle6-oven3.png
hycoclip,1,457,NaN,clock,bottle,NaN,bottle7-airplane3.png
hycoclip,1,458,NaN,airplane,bottle,NaN,bottle7-bear1.png
hycoclip,1,459,NaN,airplane,bottle,NaN,bottle7-boat3.png
hycoclip,1,460,NaN,airplane,bottle,NaN,bottle7-cat2.png
hycoclip,1,461,NaN,clock,bottle,NaN,bottle7-clock1.png
hycoclip,1,462,NaN,chair,bottle,NaN,bottle7-elephant2.png
hycoclip,1,463,NaN,clock,bottle,NaN,bottle7-keyboard2.png
hycoclip,1,464,NaN,clock,bottle,NaN,bottle7-oven2.png
hycoclip,1,465,NaN,airplane,bottle,NaN,bottle7-truck2.png
hycoclip,1,466,NaN,clock,bottle,NaN,bottle8-bicycle1.png
hycoclip,1,467,NaN,keyboard,bottle,NaN,bottle8-bird1.png
hycoclip,1,468,NaN,clock,bottle,NaN,bottle8-bottle3.png
hycoclip,1,469,NaN,clock,bottle,NaN,bottle8-dog2.png
hycoclip,1,470,NaN,boat,bottle,NaN,bottle8-elephant3.png
hycoclip,1,471,NaN,knife,bottle,NaN,bottle8-keyboard3.png
hycoclip,1,472,NaN,airplane,bottle,NaN,bottle8-knife1.png
hycoclip,1,473,NaN,clock,bottle,NaN,bottle9-bicycle1.png
hycoclip,1,474,NaN,clock,bottle,NaN,bottle9-bottle1.png
hycoclip,1,475,NaN,clock,bottle,NaN,bottle9-car3.png
hycoclip,1,476,NaN,airplane,bottle,NaN,bottle9-cat2.png
hycoclip,1,477,NaN,chair,bottle,NaN,bottle9-elephant2.png
hycoclip,1,478,NaN,keyboard,bottle,NaN,bottle9-keyboard1.png
hycoclip,1,479,NaN,clock,bottle,NaN,bottle9-oven2.png
hycoclip,1,480,NaN,clock,bottle,NaN,bottle9-truck1.png
hycoclip,1,481,NaN,airplane,car,NaN,car1-airplane1.png
hycoclip,1,482,NaN,clock,car,NaN,car1-car2.png
hycoclip,1,483,NaN,airplane,car,NaN,car1-chair3.png
hycoclip,1,484,NaN,clock,car,NaN,car1-clock2.png
hycoclip,1,485,NaN,oven,car,NaN,car1-dog2.png
hycoclip,1,486,NaN,clock,car,NaN,car1-keyboard2.png
hycoclip,1,487,NaN,keyboard,car,NaN,car1-oven3.png
hycoclip,1,488,NaN,keyboard,car,NaN,car10-bicycle2.png
hycoclip,1,489,NaN,airplane,car,NaN,car10-bottle3.png
hycoclip,1,490,NaN,airplane,car,NaN,car10-car1.png
hycoclip,1,491,NaN,airplane,car,NaN,car10-chair1.png
hycoclip,1,492,NaN,oven,car,NaN,car10-dog1.png
hycoclip,1,493,NaN,chair,car,NaN,car10-elephant2.png
hycoclip,1,494,NaN,clock,car,NaN,car10-keyboard2.png
hycoclip,1,495,NaN,airplane,car,NaN,car2-bird3.png
hycoclip,1,496,NaN,airplane,car,NaN,car2-car3.png
hycoclip,1,497,NaN,airplane,car,NaN,car2-cat3.png
hycoclip,1,498,NaN,airplane,car,NaN,car2-chair1.png
hycoclip,1,499,NaN,airplane,car,NaN,car2-knife3.png
hycoclip,1,500,NaN,clock,car,NaN,car3-airplane3.png
hycoclip,1,501,NaN,airplane,car,NaN,car3-bird2.png
hycoclip,1,502,NaN,airplane,car,NaN,car3-boat1.png
hycoclip,1,503,NaN,airplane,car,NaN,car3-bottle3.png
hycoclip,1,504,NaN,airplane,car,NaN,car3-dog2.png
hycoclip,1,505,NaN,clock,car,NaN,car3-elephant3.png
hycoclip,1,506,NaN,airplane,car,NaN,car3-oven3.png
hycoclip,1,507,NaN,clock,car,NaN,car3-truck1.png
hycoclip,1,508,NaN,airplane,car,NaN,car4-bear3.png
hycoclip,1,509,NaN,oven,car,NaN,car4-bicycle3.png
hycoclip,1,510,NaN,airplane,car,NaN,car4-bird1.png
hycoclip,1,511,NaN,airplane,car,NaN,car4-boat1.png
hycoclip,1,512,NaN,clock,car,NaN,car4-bottle1.png
hycoclip,1,513,NaN,airplane,car,NaN,car4-car2.png
hycoclip,1,514,NaN,airplane,car,NaN,car4-cat3.png
hycoclip,1,515,NaN,clock,car,NaN,car4-clock1.png
hycoclip,1,516,NaN,clock,car,NaN,car4-elephant3.png
hycoclip,1,517,NaN,clock,car,NaN,car4-oven2.png
hycoclip,1,518,NaN,clock,car,NaN,car5-airplane3.png
hycoclip,1,519,NaN,oven,car,NaN,car5-bear3.png
hycoclip,1,520,NaN,clock,car,NaN,car5-bottle1.png
hycoclip,1,521,NaN,airplane,car,NaN,car5-cat1.png
hycoclip,1,522,NaN,keyboard,car,NaN,car5-keyboard3.png
hycoclip,1,523,NaN,clock,car,NaN,car5-knife2.png
hycoclip,1,524,NaN,clock,car,NaN,car5-oven2.png
hycoclip,1,525,NaN,airplane,car,NaN,car5-truck3.png
hycoclip,1,526,NaN,clock,car,NaN,car6-bear1.png
hycoclip,1,527,NaN,clock,car,NaN,car6-bicycle3.png
hycoclip,1,528,NaN,airplane,car,NaN,car6-boat1.png
hycoclip,1,529,NaN,keyboard,car,NaN,car6-bottle1.png
hycoclip,1,530,NaN,airplane,car,NaN,car6-chair3.png
hycoclip,1,531,NaN,clock,car,NaN,car6-elephant3.png
hycoclip,1,532,NaN,airplane,car,NaN,car6-knife1.png
hycoclip,1,533,NaN,airplane,car,NaN,car6-truck3.png
hycoclip,1,534,NaN,airplane,car,NaN,car7-airplane2.png
hycoclip,1,535,NaN,airplane,car,NaN,car7-bear1.png
hycoclip,1,536,NaN,airplane,car,NaN,car7-bird3.png
hycoclip,1,537,NaN,airplane,car,NaN,car7-boat3.png
hycoclip,1,538,NaN,airplane,car,NaN,car7-car1.png
hycoclip,1,539,NaN,clock,car,NaN,car7-clock1.png
hycoclip,1,540,NaN,airplane,car,NaN,car7-dog3.png
hycoclip,1,541,NaN,clock,car,NaN,car7-elephant3.png
hycoclip,1,542,NaN,keyboard,car,NaN,car7-keyboard3.png
hycoclip,1,543,NaN,clock,car,NaN,car7-oven2.png
hycoclip,1,544,NaN,clock,car,NaN,car8-airplane3.png
hycoclip,1,545,NaN,bird,car,NaN,car8-bear1.png
hycoclip,1,546,NaN,clock,car,NaN,car8-bicycle2.png
hycoclip,1,547,NaN,airplane,car,NaN,car8-boat3.png
hycoclip,1,548,NaN,airplane,car,NaN,car8-cat1.png
hycoclip,1,549,NaN,car,car,NaN,car8-chair1.png
hycoclip,1,550,NaN,clock,car,NaN,car8-clock2.png
hycoclip,1,551,NaN,oven,car,NaN,car8-dog1.png
hycoclip,1,552,NaN,airplane,car,NaN,car8-knife2.png
hycoclip,1,553,NaN,airplane,car,NaN,car8-truck3.png
hycoclip,1,554,NaN,airplane,car,NaN,car9-bicycle2.png
hycoclip,1,555,NaN,airplane,car,NaN,car9-bird1.png
hycoclip,1,556,NaN,airplane,car,NaN,car9-cat1.png
hycoclip,1,557,NaN,clock,car,NaN,car9-clock2.png
hycoclip,1,558,NaN,clock,car,NaN,car9-keyboard2.png
hycoclip,1,559,NaN,keyboard,car,NaN,car9-knife1.png
hycoclip,1,560,NaN,airplane,car,NaN,car9-truck3.png
hycoclip,1,561,NaN,clock,cat,NaN,cat1-airplane1.png
hycoclip,1,562,NaN,airplane,cat,NaN,cat1-bird1.png
hycoclip,1,563,NaN,airplane,cat,NaN,cat1-boat1.png
hycoclip,1,564,NaN,clock,cat,NaN,cat1-car2.png
hycoclip,1,565,NaN,clock,cat,NaN,cat1-cat3.png
hycoclip,1,566,NaN,clock,cat,NaN,cat1-chair2.png
hycoclip,1,567,NaN,oven,cat,NaN,cat1-dog1.png
hycoclip,1,568,NaN,clock,cat,NaN,cat1-keyboard3.png
hycoclip,1,569,NaN,airplane,cat,NaN,cat1-oven1.png
hycoclip,1,570,NaN,clock,cat,NaN,cat10-airplane3.png
hycoclip,1,571,NaN,airplane,cat,NaN,cat10-bear1.png
hycoclip,1,572,NaN,clock,cat,NaN,cat10-bicycle1.png
hycoclip,1,573,NaN,airplane,cat,NaN,cat10-bird2.png
hycoclip,1,574,NaN,clock,cat,NaN,cat10-bottle1.png
hycoclip,1,575,NaN,clock,cat,NaN,cat10-clock1.png
hycoclip,1,576,NaN,clock,cat,NaN,cat10-elephant3.png
hycoclip,1,577,NaN,keyboard,cat,NaN,cat10-keyboard1.png
hycoclip,1,578,NaN,clock,cat,NaN,cat10-oven2.png
hycoclip,1,579,NaN,oven,cat,NaN,cat2-boat2.png
hycoclip,1,580,NaN,clock,cat,NaN,cat2-bottle3.png
hycoclip,1,581,NaN,oven,cat,NaN,cat2-car3.png
hycoclip,1,582,NaN,airplane,cat,NaN,cat2-cat1.png
hycoclip,1,583,NaN,airplane,cat,NaN,cat2-elephant1.png
hycoclip,1,584,NaN,chair,cat,NaN,cat2-knife3.png
hycoclip,1,585,NaN,clock,cat,NaN,cat2-truck3.png
hycoclip,1,586,NaN,airplane,cat,NaN,cat3-bear2.png
hycoclip,1,587,NaN,clock,cat,NaN,cat3-bicycle1.png
hycoclip,1,588,NaN,airplane,cat,NaN,cat3-cat1.png
hycoclip,1,589,NaN,clock,cat,NaN,cat3-elephant2.png
hycoclip,1,590,NaN,clock,cat,NaN,cat3-oven2.png
hycoclip,1,591,NaN,airplane,cat,NaN,cat3-truck3.png
hycoclip,1,592,NaN,clock,cat,NaN,cat4-airplane1.png
hycoclip,1,593,NaN,airplane,cat,NaN,cat4-bird2.png
hycoclip,1,594,NaN,clock,cat,NaN,cat4-car2.png
hycoclip,1,595,NaN,airplane,cat,NaN,cat4-cat3.png
hycoclip,1,596,NaN,clock,cat,NaN,cat4-chair2.png
hycoclip,1,597,NaN,clock,cat,NaN,cat4-clock2.png
hycoclip,1,598,NaN,airplane,cat,NaN,cat4-dog3.png
hycoclip,1,599,NaN,clock,cat,NaN,cat4-keyboard2.png
hycoclip,1,600,NaN,airplane,cat,NaN,cat4-knife1.png
hycoclip,1,601,NaN,airplane,cat,NaN,cat4-oven1.png
hycoclip,1,602,NaN,airplane,cat,NaN,cat4-truck3.png
hycoclip,1,603,NaN,airplane,cat,NaN,cat5-airplane2.png
hycoclip,1,604,NaN,airplane,cat,NaN,cat5-bear2.png
hycoclip,1,605,NaN,clock,cat,NaN,cat5-bicycle3.png
hycoclip,1,606,NaN,airplane,cat,NaN,cat5-boat1.png
hycoclip,1,607,NaN,clock,cat,NaN,cat5-bottle1.png
hycoclip,1,608,NaN,clock,cat,NaN,cat5-car2.png
hycoclip,1,609,NaN,chair,cat,NaN,cat5-chair3.png
hycoclip,1,610,NaN,airplane,cat,NaN,cat5-dog3.png
hycoclip,1,611,NaN,airplane,cat,NaN,cat5-elephant2.png
hycoclip,1,612,NaN,clock,cat,NaN,cat5-keyboard3.png
hycoclip,1,613,NaN,keyboard,cat,NaN,cat5-knife2.png
hycoclip,1,614,NaN,oven,cat,NaN,cat6-bear1.png
hycoclip,1,615,NaN,airplane,cat,NaN,cat6-chair3.png
hycoclip,1,616,NaN,clock,cat,NaN,cat6-clock3.png
hycoclip,1,617,NaN,keyboard,cat,NaN,cat6-keyboard3.png
hycoclip,1,618,NaN,airplane,cat,NaN,cat6-oven1.png
hycoclip,1,619,NaN,airplane,cat,NaN,cat7-airplane2.png
hycoclip,1,620,NaN,clock,cat,NaN,cat7-boat3.png
hycoclip,1,621,NaN,airplane,cat,NaN,cat7-bottle1.png
hycoclip,1,622,NaN,clock,cat,NaN,cat7-clock3.png
hycoclip,1,623,NaN,airplane,cat,NaN,cat7-dog3.png
hycoclip,1,624,NaN,airplane,cat,NaN,cat7-elephant1.png
hycoclip,1,625,NaN,airplane,cat,NaN,cat7-knife2.png
hycoclip,1,626,NaN,oven,cat,NaN,cat7-truck2.png
hycoclip,1,627,NaN,oven,cat,NaN,cat8-bear1.png
hycoclip,1,628,NaN,clock,cat,NaN,cat8-bicycle3.png
hycoclip,1,629,NaN,airplane,cat,NaN,cat8-bird2.png
hycoclip,1,630,NaN,clock,cat,NaN,cat8-car2.png
hycoclip,1,631,NaN,clock,cat,NaN,cat9-bicycle1.png
hycoclip,1,632,NaN,airplane,cat,NaN,cat9-bird3.png
hycoclip,1,633,NaN,clock,cat,NaN,cat9-boat2.png
hycoclip,1,634,NaN,airplane,cat,NaN,cat9-bottle2.png
hycoclip,1,635,NaN,airplane,cat,NaN,cat9-cat3.png
hycoclip,1,636,NaN,airplane,cat,NaN,cat9-chair2.png
hycoclip,1,637,NaN,clock,cat,NaN,cat9-clock2.png
hycoclip,1,638,NaN,clock,cat,NaN,cat9-dog2.png
hycoclip,1,639,NaN,airplane,cat,NaN,cat9-knife2.png
hycoclip,1,640,NaN,clock,cat,NaN,cat9-truck1.png
hycoclip,1,641,NaN,airplane,chair,NaN,chair1-airplane2.png
hycoclip,1,642,NaN,airplane,chair,NaN,chair1-bear1.png
hycoclip,1,643,NaN,clock,chair,NaN,chair1-cat3.png
hycoclip,1,644,NaN,knife,chair,NaN,chair1-chair1.png
hycoclip,1,645,NaN,clock,chair,NaN,chair1-clock2.png
hycoclip,1,646,NaN,airplane,chair,NaN,chair1-dog1.png
hycoclip,1,647,NaN,airplane,chair,NaN,chair1-elephant1.png
hycoclip,1,648,NaN,airplane,chair,NaN,chair1-oven3.png
hycoclip,1,649,NaN,chair,chair,NaN,chair1-truck3.png
hycoclip,1,650,NaN,airplane,chair,NaN,chair10-airplane2.png
hycoclip,1,651,NaN,clock,chair,NaN,chair10-bicycle1.png
hycoclip,1,652,NaN,airplane,chair,NaN,chair10-bird3.png
hycoclip,1,653,NaN,airplane,chair,NaN,chair10-bottle3.png
hycoclip,1,654,NaN,airplane,chair,NaN,chair10-car2.png
hycoclip,1,655,NaN,airplane,chair,NaN,chair10-cat1.png
hycoclip,1,656,NaN,clock,chair,NaN,chair10-clock1.png
hycoclip,1,657,NaN,clock,chair,NaN,chair10-dog1.png
hycoclip,1,658,NaN,airplane,chair,NaN,chair10-oven1.png
hycoclip,1,659,NaN,airplane,chair,NaN,chair2-bear2.png
hycoclip,1,660,NaN,airplane,chair,NaN,chair2-boat1.png
hycoclip,1,661,NaN,keyboard,chair,NaN,chair2-keyboard2.png
hycoclip,1,662,NaN,airplane,chair,NaN,chair2-knife1.png
hycoclip,1,663,NaN,airplane,chair,NaN,chair3-airplane2.png
hycoclip,1,664,NaN,chair,chair,NaN,chair3-bicycle3.png
hycoclip,1,665,NaN,clock,chair,NaN,chair3-bottle3.png
hycoclip,1,666,NaN,oven,chair,NaN,chair3-car3.png
hycoclip,1,667,NaN,airplane,chair,NaN,chair3-dog2.png
hycoclip,1,668,NaN,airplane,chair,NaN,chair3-knife1.png
hycoclip,1,669,NaN,airplane,chair,NaN,chair4-bear2.png
hycoclip,1,670,NaN,airplane,chair,NaN,chair4-cat2.png
hycoclip,1,671,NaN,airplane,chair,NaN,chair4-chair3.png
hycoclip,1,672,NaN,clock,chair,NaN,chair4-keyboard2.png
hycoclip,1,673,NaN,clock,chair,NaN,chair4-oven2.png
hycoclip,1,674,NaN,oven,chair,NaN,chair4-truck2.png
hycoclip,1,675,NaN,airplane,chair,NaN,chair5-bicycle1.png
hycoclip,1,676,NaN,chair,chair,NaN,chair5-bird1.png
hycoclip,1,677,NaN,clock,chair,NaN,chair5-boat3.png
hycoclip,1,678,NaN,airplane,chair,NaN,chair5-bottle3.png
hycoclip,1,679,NaN,airplane,chair,NaN,chair5-car1.png
hycoclip,1,680,NaN,airplane,chair,NaN,chair5-cat3.png
hycoclip,1,681,NaN,clock,chair,NaN,chair5-clock2.png
hycoclip,1,682,NaN,clock,chair,NaN,chair5-keyboard2.png
hycoclip,1,683,NaN,clock,chair,NaN,chair5-knife3.png
hycoclip,1,684,NaN,clock,chair,NaN,chair5-oven2.png
hycoclip,1,685,NaN,airplane,chair,NaN,chair5-truck3.png
hycoclip,1,686,NaN,airplane,chair,NaN,chair6-bird2.png
hycoclip,1,687,NaN,oven,chair,NaN,chair6-dog1.png
hycoclip,1,688,NaN,airplane,chair,NaN,chair6-elephant2.png
hycoclip,1,689,NaN,oven,chair,NaN,chair6-truck2.png
hycoclip,1,690,NaN,clock,chair,NaN,chair7-airplane1.png
hycoclip,1,691,NaN,airplane,chair,NaN,chair7-bird1.png
hycoclip,1,692,NaN,airplane,chair,NaN,chair7-boat3.png
hycoclip,1,693,NaN,clock,chair,NaN,chair7-bottle1.png
hycoclip,1,694,NaN,airplane,chair,NaN,chair7-car2.png
hycoclip,1,695,NaN,airplane,chair,NaN,chair7-cat1.png
hycoclip,1,696,NaN,chair,chair,NaN,chair7-chair1.png
hycoclip,1,697,NaN,clock,chair,NaN,chair7-clock3.png
hycoclip,1,698,NaN,chair,chair,NaN,chair7-elephant1.png
hycoclip,1,699,NaN,clock,chair,NaN,chair7-knife2.png
hycoclip,1,700,NaN,airplane,chair,NaN,chair7-truck3.png
hycoclip,1,701,NaN,airplane,chair,NaN,chair8-airplane1.png
hycoclip,1,702,NaN,airplane,chair,NaN,chair8-bear1.png
hycoclip,1,703,NaN,clock,chair,NaN,chair8-bicycle3.png
hycoclip,1,704,NaN,airplane,chair,NaN,chair8-boat1.png
hycoclip,1,705,NaN,airplane,chair,NaN,chair8-car1.png
hycoclip,1,706,NaN,airplane,chair,NaN,chair8-chair3.png
hycoclip,1,707,NaN,clock,chair,NaN,chair8-clock3.png
hycoclip,1,708,NaN,chair,chair,NaN,chair8-elephant1.png
hycoclip,1,709,NaN,clock,chair,NaN,chair8-keyboard3.png
hycoclip,1,710,NaN,airplane,chair,NaN,chair8-knife2.png
hycoclip,1,711,NaN,airplane,chair,NaN,chair8-oven1.png
hycoclip,1,712,NaN,airplane,chair,NaN,chair9-bear1.png
hycoclip,1,713,NaN,clock,chair,NaN,chair9-bicycle3.png
hycoclip,1,714,NaN,clock,chair,NaN,chair9-bird3.png
hycoclip,1,715,NaN,clock,chair,NaN,chair9-boat2.png
hycoclip,1,716,NaN,clock,chair,NaN,chair9-bottle3.png
hycoclip,1,717,NaN,airplane,chair,NaN,chair9-chair3.png
hycoclip,1,718,NaN,clock,chair,NaN,chair9-dog2.png
hycoclip,1,719,NaN,airplane,chair,NaN,chair9-elephant1.png
hycoclip,1,720,NaN,clock,chair,NaN,chair9-keyboard2.png
hycoclip,1,721,NaN,oven,clock,NaN,clock1-bear1.png
hycoclip,1,722,NaN,airplane,clock,NaN,clock1-boat3.png
hycoclip,1,723,NaN,airplane,clock,NaN,clock1-car1.png
hycoclip,1,724,NaN,clock,clock,NaN,clock1-clock2.png
hycoclip,1,725,NaN,clock,clock,NaN,clock1-dog2.png
hycoclip,1,726,NaN,airplane,clock,NaN,clock1-elephant2.png
hycoclip,1,727,NaN,airplane,clock,NaN,clock1-truck3.png
hycoclip,1,728,NaN,clock,clock,NaN,clock10-airplane1.png
hycoclip,1,729,NaN,airplane,clock,NaN,clock10-bird3.png
hycoclip,1,730,NaN,clock,clock,NaN,clock10-boat2.png
hycoclip,1,731,NaN,clock,clock,NaN,clock10-bottle1.png
hycoclip,1,732,NaN,airplane,clock,NaN,clock10-cat1.png
hycoclip,1,733,NaN,clock,clock,NaN,clock10-clock3.png
hycoclip,1,734,NaN,airplane,clock,NaN,clock10-dog3.png
hycoclip,1,735,NaN,clock,clock,NaN,clock10-knife3.png
hycoclip,1,736,NaN,clock,clock,NaN,clock10-oven2.png
hycoclip,1,737,NaN,airplane,clock,NaN,clock10-truck2.png
hycoclip,1,738,NaN,airplane,clock,NaN,clock2-bear2.png
hycoclip,1,739,NaN,clock,clock,NaN,clock2-bicycle1.png
hycoclip,1,740,NaN,clock,clock,NaN,clock2-bottle3.png
hycoclip,1,741,NaN,clock,clock,NaN,clock2-clock3.png
hycoclip,1,742,NaN,oven,clock,NaN,clock2-dog1.png
hycoclip,1,743,NaN,clock,clock,NaN,clock2-elephant2.png
hycoclip,1,744,NaN,clock,clock,NaN,clock2-knife1.png
hycoclip,1,745,NaN,clock,clock,NaN,clock3-bear3.png
hycoclip,1,746,NaN,clock,clock,NaN,clock3-bicycle2.png
hycoclip,1,747,NaN,car,clock,NaN,clock3-bird1.png
hycoclip,1,748,NaN,clock,clock,NaN,clock3-car2.png
hycoclip,1,749,NaN,airplane,clock,NaN,clock3-cat1.png
hycoclip,1,750,NaN,clock,clock,NaN,clock3-dog2.png
hycoclip,1,751,NaN,clock,clock,NaN,clock3-elephant3.png
hycoclip,1,752,NaN,clock,clock,NaN,clock3-keyboard3.png
hycoclip,1,753,NaN,clock,clock,NaN,clock4-airplane1.png
hycoclip,1,754,NaN,knife,clock,NaN,clock4-bird3.png
hycoclip,1,755,NaN,airplane,clock,NaN,clock4-boat3.png
hycoclip,1,756,NaN,airplane,clock,NaN,clock4-bottle3.png
hycoclip,1,757,NaN,clock,clock,NaN,clock4-car2.png
hycoclip,1,758,NaN,chair,clock,NaN,clock4-chair1.png
hycoclip,1,759,NaN,airplane,clock,NaN,clock4-elephant2.png
hycoclip,1,760,NaN,clock,clock,NaN,clock4-knife1.png
hycoclip,1,761,NaN,airplane,clock,NaN,clock4-oven1.png
hycoclip,1,762,NaN,clock,clock,NaN,clock5-airplane1.png
hycoclip,1,763,NaN,clock,clock,NaN,clock5-bicycle1.png
hycoclip,1,764,NaN,airplane,clock,NaN,clock5-chair3.png
hycoclip,1,765,NaN,clock,clock,NaN,clock5-clock2.png
hycoclip,1,766,NaN,clock,clock,NaN,clock5-elephant2.png
hycoclip,1,767,NaN,keyboard,clock,NaN,clock5-keyboard1.png
hycoclip,1,768,NaN,airplane,clock,NaN,clock5-oven1.png
hycoclip,1,769,NaN,clock,clock,NaN,clock6-bicycle1.png
hycoclip,1,770,NaN,clock,clock,NaN,clock6-bird3.png
hycoclip,1,771,NaN,clock,clock,NaN,clock6-bottle1.png
hycoclip,1,772,NaN,clock,clock,NaN,clock6-car2.png
hycoclip,1,773,NaN,airplane,clock,NaN,clock6-chair3.png
hycoclip,1,774,NaN,clock,clock,NaN,clock6-clock2.png
hycoclip,1,775,NaN,airplane,clock,NaN,clock6-knife2.png
hycoclip,1,776,NaN,airplane,clock,NaN,clock6-oven1.png
hycoclip,1,777,NaN,airplane,clock,NaN,clock6-truck3.png
hycoclip,1,778,NaN,chair,clock,NaN,clock7-bear2.png
hycoclip,1,779,NaN,clock,clock,NaN,clock7-bicycle1.png
hycoclip,1,780,NaN,airplane,clock,NaN,clock7-boat3.png
hycoclip,1,781,NaN,clock,clock,NaN,clock7-bottle2.png
hycoclip,1,782,NaN,clock,clock,NaN,clock7-car1.png
hycoclip,1,783,NaN,oven,clock,NaN,clock7-cat2.png
hycoclip,1,784,NaN,clock,clock,NaN,clock7-dog2.png
hycoclip,1,785,NaN,clock,clock,NaN,clock7-keyboard2.png
hycoclip,1,786,NaN,clock,clock,NaN,clock7-truck3.png
hycoclip,1,787,NaN,airplane,clock,NaN,clock8-airplane2.png
hycoclip,1,788,NaN,airplane,clock,NaN,clock8-bear2.png
hycoclip,1,789,NaN,airplane,clock,NaN,clock8-boat1.png
hycoclip,1,790,NaN,airplane,clock,NaN,clock8-cat1.png
hycoclip,1,791,NaN,clock,clock,NaN,clock8-chair2.png
hycoclip,1,792,NaN,keyboard,clock,NaN,clock8-keyboard1.png
hycoclip,1,793,NaN,airplane,clock,NaN,clock8-knife1.png
hycoclip,1,794,NaN,airplane,clock,NaN,clock8-oven3.png
hycoclip,1,795,NaN,oven,clock,NaN,clock8-truck2.png
hycoclip,1,796,NaN,clock,clock,NaN,clock9-airplane1.png
hycoclip,1,797,NaN,airplane,clock,NaN,clock9-bird2.png
hycoclip,1,798,NaN,airplane,clock,NaN,clock9-cat1.png
hycoclip,1,799,NaN,clock,clock,NaN,clock9-chair3.png
hycoclip,1,800,NaN,clock,clock,NaN,clock9-keyboard2.png
hycoclip,1,801,NaN,clock,dog,NaN,dog1-airplane3.png
hycoclip,1,802,NaN,oven,dog,NaN,dog1-bear1.png
hycoclip,1,803,NaN,chair,dog,NaN,dog1-bird1.png
hycoclip,1,804,NaN,airplane,dog,NaN,dog1-boat3.png
hycoclip,1,805,NaN,airplane,dog,NaN,dog1-car2.png
hycoclip,1,806,NaN,clock,dog,NaN,dog1-cat3.png
hycoclip,1,807,NaN,airplane,dog,NaN,dog1-chair1.png
hycoclip,1,808,NaN,clock,dog,NaN,dog1-dog2.png
hycoclip,1,809,NaN,clock,dog,NaN,dog1-knife3.png
hycoclip,1,810,NaN,keyboard,dog,NaN,dog10-airplane1.png
hycoclip,1,811,NaN,airplane,dog,NaN,dog10-bicycle1.png
hycoclip,1,812,NaN,airplane,dog,NaN,dog10-bottle1.png
hycoclip,1,813,NaN,airplane,dog,NaN,dog10-car3.png
hycoclip,1,814,NaN,clock,dog,NaN,dog10-clock1.png
hycoclip,1,815,NaN,oven,dog,NaN,dog10-dog1.png
hycoclip,1,816,NaN,airplane,dog,NaN,dog10-elephant1.png
hycoclip,1,817,NaN,clock,dog,NaN,dog10-keyboard2.png
hycoclip,1,818,NaN,clock,dog,NaN,dog10-oven2.png
hycoclip,1,819,NaN,oven,dog,NaN,dog10-truck2.png
hycoclip,1,820,NaN,airplane,dog,NaN,dog2-airplane2.png
hycoclip,1,821,NaN,clock,dog,NaN,dog2-bicycle2.png
hycoclip,1,822,NaN,chair,dog,NaN,dog2-bottle2.png
hycoclip,1,823,NaN,airplane,dog,NaN,dog2-cat1.png
hycoclip,1,824,NaN,airplane,dog,NaN,dog2-dog3.png
hycoclip,1,825,NaN,airplane,dog,NaN,dog2-knife3.png
hycoclip,1,826,NaN,oven,dog,NaN,dog3-bear3.png
hycoclip,1,827,NaN,chair,dog,NaN,dog3-bird2.png
hycoclip,1,828,NaN,airplane,dog,NaN,dog3-boat1.png
hycoclip,1,829,NaN,clock,dog,NaN,dog3-clock1.png
hycoclip,1,830,NaN,oven,dog,NaN,dog3-dog1.png
hycoclip,1,831,NaN,clock,dog,NaN,dog3-elephant2.png
hycoclip,1,832,NaN,keyboard,dog,NaN,dog3-keyboard1.png
hycoclip,1,833,NaN,clock,dog,NaN,dog3-knife3.png
hycoclip,1,834,NaN,oven,dog,NaN,dog3-truck2.png
hycoclip,1,835,NaN,airplane,dog,NaN,dog4-airplane3.png
hycoclip,1,836,NaN,clock,dog,NaN,dog4-bicycle1.png
hycoclip,1,837,NaN,car,dog,NaN,dog4-bird1.png
hycoclip,1,838,NaN,clock,dog,NaN,dog4-bottle2.png
hycoclip,1,839,NaN,airplane,dog,NaN,dog4-cat3.png
hycoclip,1,840,NaN,airplane,dog,NaN,dog4-chair1.png
hycoclip,1,841,NaN,clock,dog,NaN,dog4-clock1.png
hycoclip,1,842,NaN,airplane,dog,NaN,dog4-elephant2.png
hycoclip,1,843,NaN,clock,dog,NaN,dog4-keyboard2.png
hycoclip,1,844,NaN,airplane,dog,NaN,dog4-oven1.png
hycoclip,1,845,NaN,oven,dog,NaN,dog4-truck2.png
hycoclip,1,846,NaN,airplane,dog,NaN,dog5-bear3.png
hycoclip,1,847,NaN,airplane,dog,NaN,dog5-boat3.png
hycoclip,1,848,NaN,clock,dog,NaN,dog5-car3.png
hycoclip,1,849,NaN,chair,dog,NaN,dog5-elephant1.png
hycoclip,1,850,NaN,clock,dog,NaN,dog5-knife2.png
hycoclip,1,851,NaN,airplane,dog,NaN,dog5-oven1.png
hycoclip,1,852,NaN,oven,dog,NaN,dog5-truck2.png
hycoclip,1,853,NaN,clock,dog,NaN,dog6-bicycle1.png
hycoclip,1,854,NaN,airplane,dog,NaN,dog6-bird1.png
hycoclip,1,855,NaN,airplane,dog,NaN,dog6-cat1.png
hycoclip,1,856,NaN,clock,dog,NaN,dog6-clock1.png
hycoclip,1,857,NaN,airplane,dog,NaN,dog6-elephant2.png
hycoclip,1,858,NaN,knife,dog,NaN,dog6-truck2.png
hycoclip,1,859,NaN,clock,dog,NaN,dog7-bird3.png
hycoclip,1,860,NaN,clock,dog,NaN,dog7-car2.png
hycoclip,1,861,NaN,clock,dog,NaN,dog7-chair2.png
hycoclip,1,862,NaN,clock,dog,NaN,dog7-keyboard3.png
hycoclip,1,863,NaN,chair,dog,NaN,dog7-knife3.png
hycoclip,1,864,NaN,clock,dog,NaN,dog7-oven2.png
hycoclip,1,865,NaN,oven,dog,NaN,dog8-bear3.png
hycoclip,1,866,NaN,clock,dog,NaN,dog8-boat3.png
hycoclip,1,867,NaN,airplane,dog,NaN,dog8-bottle2.png
hycoclip,1,868,NaN,airplane,dog,NaN,dog8-chair3.png
hycoclip,1,869,NaN,clock,dog,NaN,dog8-clock2.png
hycoclip,1,870,NaN,airplane,dog,NaN,dog8-dog3.png
hycoclip,1,871,NaN,keyboard,dog,NaN,dog8-keyboard3.png
hycoclip,1,872,NaN,knife,dog,NaN,dog8-oven3.png
hycoclip,1,873,NaN,airplane,dog,NaN,dog9-airplane3.png
hycoclip,1,874,NaN,clock,dog,NaN,dog9-bear3.png
hycoclip,1,875,NaN,clock,dog,NaN,dog9-bicycle3.png
hycoclip,1,876,NaN,airplane,dog,NaN,dog9-boat1.png
hycoclip,1,877,NaN,clock,dog,NaN,dog9-bottle1.png
hycoclip,1,878,NaN,clock,dog,NaN,dog9-car1.png
hycoclip,1,879,NaN,airplane,dog,NaN,dog9-cat1.png
hycoclip,1,880,NaN,keyboard,dog,NaN,dog9-chair2.png
hycoclip,1,881,NaN,airplane,elephant,NaN,elephant1-airplane2.png
hycoclip,1,882,NaN,airplane,elephant,NaN,elephant1-bear2.png
hycoclip,1,883,NaN,airplane,elephant,NaN,elephant1-boat2.png
hycoclip,1,884,NaN,clock,elephant,NaN,elephant1-bottle1.png
hycoclip,1,885,NaN,oven,elephant,NaN,elephant1-car3.png
hycoclip,1,886,NaN,airplane,elephant,NaN,elephant1-chair1.png
hycoclip,1,887,NaN,airplane,elephant,NaN,elephant1-dog2.png
hycoclip,1,888,NaN,keyboard,elephant,NaN,elephant1-keyboard3.png
hycoclip,1,889,NaN,clock,elephant,NaN,elephant1-oven2.png
hycoclip,1,890,NaN,airplane,elephant,NaN,elephant10-bear1.png
hycoclip,1,891,NaN,chair,elephant,NaN,elephant10-elephant1.png
hycoclip,1,892,NaN,keyboard,elephant,NaN,elephant10-keyboard1.png
hycoclip,1,893,NaN,clock,elephant,NaN,elephant10-knife3.png
hycoclip,1,894,NaN,clock,elephant,NaN,elephant2-airplane3.png
hycoclip,1,895,NaN,airplane,elephant,NaN,elephant2-bear3.png
hycoclip,1,896,NaN,car,elephant,NaN,elephant2-bird1.png
hycoclip,1,897,NaN,airplane,elephant,NaN,elephant2-boat1.png
hycoclip,1,898,NaN,airplane,elephant,NaN,elephant2-bottle3.png
hycoclip,1,899,NaN,airplane,elephant,NaN,elephant2-cat1.png
hycoclip,1,900,NaN,clock,elephant,NaN,elephant2-clock1.png
hycoclip,1,901,NaN,clock,elephant,NaN,elephant2-elephant3.png
hycoclip,1,902,NaN,clock,elephant,NaN,elephant2-keyboard3.png
hycoclip,1,903,NaN,airplane,elephant,NaN,elephant2-truck2.png
hycoclip,1,904,NaN,airplane,elephant,NaN,elephant3-cat2.png
hycoclip,1,905,NaN,chair,elephant,NaN,elephant3-chair1.png
hycoclip,1,906,NaN,clock,elephant,NaN,elephant3-keyboard2.png
hycoclip,1,907,NaN,airplane,elephant,NaN,elephant3-knife1.png
hycoclip,1,908,NaN,airplane,elephant,NaN,elephant3-oven1.png
hycoclip,1,909,NaN,clock,elephant,NaN,elephant3-truck1.png
hycoclip,1,910,NaN,airplane,elephant,NaN,elephant4-bicycle2.png
hycoclip,1,911,NaN,airplane,elephant,NaN,elephant4-bird1.png
hycoclip,1,912,NaN,airplane,elephant,NaN,elephant4-boat3.png
hycoclip,1,913,NaN,airplane,elephant,NaN,elephant4-car3.png
hycoclip,1,914,NaN,airplane,elephant,NaN,elephant4-chair3.png
hycoclip,1,915,NaN,clock,elephant,NaN,elephant4-clock3.png
hycoclip,1,916,NaN,airplane,elephant,NaN,elephant4-oven1.png
hycoclip,1,917,NaN,airplane,elephant,NaN,elephant5-bear2.png
hycoclip,1,918,NaN,clock,elephant,NaN,elephant5-bicycle3.png
hycoclip,1,919,NaN,airplane,elephant,NaN,elephant5-bottle2.png
hycoclip,1,920,NaN,clock,elephant,NaN,elephant5-car1.png
hycoclip,1,921,NaN,airplane,elephant,NaN,elephant5-chair3.png
hycoclip,1,922,NaN,airplane,elephant,NaN,elephant5-elephant1.png
hycoclip,1,923,NaN,clock,elephant,NaN,elephant5-truck1.png
hycoclip,1,924,NaN,airplane,elephant,NaN,elephant6-bicycle1.png
hycoclip,1,925,NaN,keyboard,elephant,NaN,elephant6-bird1.png
hycoclip,1,926,NaN,airplane,elephant,NaN,elephant6-bottle2.png
hycoclip,1,927,NaN,oven,elephant,NaN,elephant6-car3.png
hycoclip,1,928,NaN,airplane,elephant,NaN,elephant6-cat2.png
hycoclip,1,929,NaN,clock,elephant,NaN,elephant6-dog2.png
hycoclip,1,930,NaN,airplane,elephant,NaN,elephant6-knife2.png
hycoclip,1,931,NaN,airplane,elephant,NaN,elephant6-oven1.png
hycoclip,1,932,NaN,clock,elephant,NaN,elephant6-truck3.png
hycoclip,1,933,NaN,clock,elephant,NaN,elephant7-airplane3.png
hycoclip,1,934,NaN,oven,elephant,NaN,elephant7-bear3.png
hycoclip,1,935,NaN,airplane,elephant,NaN,elephant7-bird1.png
hycoclip,1,936,NaN,clock,elephant,NaN,elephant7-bottle3.png
hycoclip,1,937,NaN,airplane,elephant,NaN,elephant7-car3.png
hycoclip,1,938,NaN,airplane,elephant,NaN,elephant7-cat1.png
hycoclip,1,939,NaN,clock,elephant,NaN,elephant7-clock2.png
hycoclip,1,940,NaN,oven,elephant,NaN,elephant7-dog1.png
hycoclip,1,941,NaN,clock,elephant,NaN,elephant7-keyboard3.png
hycoclip,1,942,NaN,airplane,elephant,NaN,elephant7-knife2.png
hycoclip,1,943,NaN,clock,elephant,NaN,elephant8-airplane3.png
hycoclip,1,944,NaN,oven,elephant,NaN,elephant8-bicycle3.png
hycoclip,1,945,NaN,chair,elephant,NaN,elephant8-bird2.png
hycoclip,1,946,NaN,oven,elephant,NaN,elephant8-boat2.png
hycoclip,1,947,NaN,airplane,elephant,NaN,elephant8-cat1.png
hycoclip,1,948,NaN,clock,elephant,NaN,elephant8-clock2.png
hycoclip,1,949,NaN,oven,elephant,NaN,elephant8-dog1.png
hycoclip,1,950,NaN,chair,elephant,NaN,elephant8-elephant1.png
hycoclip,1,951,NaN,airplane,elephant,NaN,elephant8-knife2.png
hycoclip,1,952,NaN,clock,elephant,NaN,elephant8-oven3.png
hycoclip,1,953,NaN,airplane,elephant,NaN,elephant8-truck3.png
hycoclip,1,954,NaN,airplane,elephant,NaN,elephant9-airplane2.png
hycoclip,1,955,NaN,chair,elephant,NaN,elephant9-bicycle2.png
hycoclip,1,956,NaN,airplane,elephant,NaN,elephant9-boat3.png
hycoclip,1,957,NaN,clock,elephant,NaN,elephant9-chair2.png
hycoclip,1,958,NaN,clock,elephant,NaN,elephant9-clock3.png
hycoclip,1,959,NaN,airplane,elephant,NaN,elephant9-dog3.png
hycoclip,1,960,NaN,chair,elephant,NaN,elephant9-elephant3.png
hycoclip,1,961,NaN,airplane,keyboard,NaN,keyboard1-airplane2.png
hycoclip,1,962,NaN,airplane,keyboard,NaN,keyboard1-bear2.png
hycoclip,1,963,NaN,airplane,keyboard,NaN,keyboard1-bird2.png
hycoclip,1,964,NaN,airplane,keyboard,NaN,keyboard1-car3.png
hycoclip,1,965,NaN,clock,keyboard,NaN,keyboard1-chair2.png
hycoclip,1,966,NaN,clock,keyboard,NaN,keyboard1-clock1.png
hycoclip,1,967,NaN,airplane,keyboard,NaN,keyboard1-dog3.png
hycoclip,1,968,NaN,clock,keyboard,NaN,keyboard1-elephant3.png
hycoclip,1,969,NaN,airplane,keyboard,NaN,keyboard10-airplane3.png
hycoclip,1,970,NaN,oven,keyboard,NaN,keyboard10-boat2.png
hycoclip,1,971,NaN,airplane,keyboard,NaN,keyboard10-car1.png
hycoclip,1,972,NaN,keyboard,keyboard,NaN,keyboard10-keyboard1.png
hycoclip,1,973,NaN,clock,keyboard,NaN,keyboard10-oven3.png
hycoclip,1,974,NaN,oven,keyboard,NaN,keyboard10-truck1.png
hycoclip,1,975,NaN,keyboard,keyboard,NaN,keyboard2-bicycle3.png
hycoclip,1,976,NaN,clock,keyboard,NaN,keyboard2-bottle1.png
hycoclip,1,977,NaN,clock,keyboard,NaN,keyboard2-clock1.png
hycoclip,1,978,NaN,airplane,keyboard,NaN,keyboard2-elephant1.png
hycoclip,1,979,NaN,clock,keyboard,NaN,keyboard2-knife1.png
hycoclip,1,980,NaN,chair,keyboard,NaN,keyboard3-bicycle2.png
hycoclip,1,981,NaN,knife,keyboard,NaN,keyboard3-bird3.png
hycoclip,1,982,NaN,airplane,keyboard,NaN,keyboard3-boat1.png
hycoclip,1,983,NaN,clock,keyboard,NaN,keyboard3-car2.png
hycoclip,1,984,NaN,airplane,keyboard,NaN,keyboard3-cat1.png
hycoclip,1,985,NaN,clock,keyboard,NaN,keyboard3-clock3.png
hycoclip,1,986,NaN,airplane,keyboard,NaN,keyboard3-elephant2.png
hycoclip,1,987,NaN,keyboard,keyboard,NaN,keyboard4-bird1.png
hycoclip,1,988,NaN,chair,keyboard,NaN,keyboard4-bottle2.png
hycoclip,1,989,NaN,airplane,keyboard,NaN,keyboard4-cat2.png
hycoclip,1,990,NaN,clock,keyboard,NaN,keyboard4-clock2.png
hycoclip,1,991,NaN,keyboard,keyboard,NaN,keyboard4-keyboard2.png
hycoclip,1,992,NaN,keyboard,keyboard,NaN,keyboard4-knife2.png
hycoclip,1,993,NaN,clock,keyboard,NaN,keyboard4-oven2.png
hycoclip,1,994,NaN,chair,keyboard,NaN,keyboard4-truck3.png
hycoclip,1,995,NaN,airplane,keyboard,NaN,keyboard5-airplane3.png
hycoclip,1,996,NaN,airplane,keyboard,NaN,keyboard5-bear3.png
hycoclip,1,997,NaN,oven,keyboard,NaN,keyboard5-bicycle1.png
hycoclip,1,998,NaN,airplane,keyboard,NaN,keyboard5-bird3.png
hycoclip,1,999,NaN,clock,keyboard,NaN,keyboard5-bottle1.png
hycoclip,1,1000,NaN,airplane,keyboard,NaN,keyboard5-cat1.png
hycoclip,1,1001,NaN,airplane,keyboard,NaN,keyboard5-dog3.png
hycoclip,1,1002,NaN,keyboard,keyboard,NaN,keyboard5-keyboard1.png
hycoclip,1,1003,NaN,keyboard,keyboard,NaN,keyboard5-knife2.png
hycoclip,1,1004,NaN,clock,keyboard,NaN,keyboard5-oven2.png
hycoclip,1,1005,NaN,airplane,keyboard,NaN,keyboard6-bear2.png
hycoclip,1,1006,NaN,airplane,keyboard,NaN,keyboard6-bicycle1.png
hycoclip,1,1007,NaN,clock,keyboard,NaN,keyboard6-boat2.png
hycoclip,1,1008,NaN,clock,keyboard,NaN,keyboard6-bottle2.png
hycoclip,1,1009,NaN,clock,keyboard,NaN,keyboard6-car2.png
hycoclip,1,1010,NaN,airplane,keyboard,NaN,keyboard6-chair1.png
hycoclip,1,1011,NaN,clock,keyboard,NaN,keyboard6-dog2.png
hycoclip,1,1012,NaN,airplane,keyboard,NaN,keyboard6-elephant1.png
hycoclip,1,1013,NaN,airplane,keyboard,NaN,keyboard6-knife2.png
hycoclip,1,1014,NaN,oven,keyboard,NaN,keyboard7-bear2.png
hycoclip,1,1015,NaN,clock,keyboard,NaN,keyboard7-boat2.png
hycoclip,1,1016,NaN,clock,keyboard,NaN,keyboard7-bottle1.png
hycoclip,1,1017,NaN,oven,keyboard,NaN,keyboard7-car3.png
hycoclip,1,1018,NaN,airplane,keyboard,NaN,keyboard7-chair3.png
hycoclip,1,1019,NaN,clock,keyboard,NaN,keyboard7-clock3.png
hycoclip,1,1020,NaN,oven,keyboard,NaN,keyboard7-dog1.png
hycoclip,1,1021,NaN,airplane,keyboard,NaN,keyboard7-knife1.png
hycoclip,1,1022,NaN,clock,keyboard,NaN,keyboard7-oven2.png
hycoclip,1,1023,NaN,oven,keyboard,NaN,keyboard7-truck2.png
hycoclip,1,1024,NaN,airplane,keyboard,NaN,keyboard8-airplane2.png
hycoclip,1,1025,NaN,airplane,keyboard,NaN,keyboard8-cat3.png
hycoclip,1,1026,NaN,clock,keyboard,NaN,keyboard8-chair2.png
hycoclip,1,1027,NaN,airplane,keyboard,NaN,keyboard8-dog3.png
hycoclip,1,1028,NaN,keyboard,keyboard,NaN,keyboard8-keyboard2.png
hycoclip,1,1029,NaN,airplane,keyboard,NaN,keyboard8-oven1.png
hycoclip,1,1030,NaN,airplane,keyboard,NaN,keyboard8-truck3.png
hycoclip,1,1031,NaN,clock,keyboard,NaN,keyboard9-airplane3.png
hycoclip,1,1032,NaN,airplane,keyboard,NaN,keyboard9-bear2.png
hycoclip,1,1033,NaN,keyboard,keyboard,NaN,keyboard9-bicycle2.png
hycoclip,1,1034,NaN,airplane,keyboard,NaN,keyboard9-bird1.png
hycoclip,1,1035,NaN,airplane,keyboard,NaN,keyboard9-boat2.png
hycoclip,1,1036,NaN,airplane,keyboard,NaN,keyboard9-cat1.png
hycoclip,1,1037,NaN,clock,keyboard,NaN,keyboard9-chair2.png
hycoclip,1,1038,NaN,airplane,keyboard,NaN,keyboard9-elephant2.png
hycoclip,1,1039,NaN,clock,keyboard,NaN,keyboard9-keyboard2.png
hycoclip,1,1040,NaN,airplane,keyboard,NaN,keyboard9-truck3.png
hycoclip,1,1041,NaN,clock,knife,NaN,knife1-airplane1.png
hycoclip,1,1042,NaN,knife,knife,NaN,knife1-bird2.png
hycoclip,1,1043,NaN,airplane,knife,NaN,knife1-car3.png
hycoclip,1,1044,NaN,airplane,knife,NaN,knife1-chair1.png
hycoclip,1,1045,NaN,clock,knife,NaN,knife1-clock2.png
hycoclip,1,1046,NaN,oven,knife,NaN,knife1-dog1.png
hycoclip,1,1047,NaN,airplane,knife,NaN,knife1-elephant1.png
hycoclip,1,1048,NaN,knife,knife,NaN,knife1-keyboard3.png
hycoclip,1,1049,NaN,airplane,knife,NaN,knife1-oven1.png
hycoclip,1,1050,NaN,oven,knife,NaN,knife1-truck2.png
hycoclip,1,1051,NaN,oven,knife,NaN,knife10-bear3.png
hycoclip,1,1052,NaN,knife,knife,NaN,knife10-chair1.png
hycoclip,1,1053,NaN,oven,knife,NaN,knife10-dog1.png
hycoclip,1,1054,NaN,clock,knife,NaN,knife10-elephant3.png
hycoclip,1,1055,NaN,keyboard,knife,NaN,knife10-keyboard3.png
hycoclip,1,1056,NaN,clock,knife,NaN,knife10-knife1.png
hycoclip,1,1057,NaN,keyboard,knife,NaN,knife10-oven3.png
hycoclip,1,1058,NaN,airplane,knife,NaN,knife2-bear2.png
hycoclip,1,1059,NaN,clock,knife,NaN,knife2-bicycle3.png
hycoclip,1,1060,NaN,keyboard,knife,NaN,knife2-bird1.png
hycoclip,1,1061,NaN,clock,knife,NaN,knife2-bottle2.png
hycoclip,1,1062,NaN,clock,knife,NaN,knife2-car3.png
hycoclip,1,1063,NaN,clock,knife,NaN,knife2-cat3.png
hycoclip,1,1064,NaN,clock,knife,NaN,knife2-dog1.png
hycoclip,1,1065,NaN,airplane,knife,NaN,knife2-elephant2.png
hycoclip,1,1066,NaN,airplane,knife,NaN,knife2-truck2.png
hycoclip,1,1067,NaN,airplane,knife,NaN,knife3-bear2.png
hycoclip,1,1068,NaN,airplane,knife,NaN,knife3-cat1.png
hycoclip,1,1069,NaN,clock,knife,NaN,knife3-clock2.png
hycoclip,1,1070,NaN,keyboard,knife,NaN,knife3-keyboard3.png
hycoclip,1,1071,NaN,airplane,knife,NaN,knife3-knife1.png
hycoclip,1,1072,NaN,clock,knife,NaN,knife4-airplane3.png
hycoclip,1,1073,NaN,airplane,knife,NaN,knife4-bear1.png
hycoclip,1,1074,NaN,airplane,knife,NaN,knife4-boat1.png
hycoclip,1,1075,NaN,clock,knife,NaN,knife4-car2.png
hycoclip,1,1076,NaN,airplane,knife,NaN,knife4-cat2.png
hycoclip,1,1077,NaN,clock,knife,NaN,knife4-clock3.png
hycoclip,1,1078,NaN,keyboard,knife,NaN,knife4-keyboard1.png
hycoclip,1,1079,NaN,clock,knife,NaN,knife4-knife2.png
hycoclip,1,1080,NaN,knife,knife,NaN,knife4-oven2.png
hycoclip,1,1081,NaN,clock,knife,NaN,knife5-bicycle2.png
hycoclip,1,1082,NaN,airplane,knife,NaN,knife5-cat2.png
hycoclip,1,1083,NaN,clock,knife,NaN,knife5-clock1.png
hycoclip,1,1084,NaN,oven,knife,NaN,knife5-dog1.png
hycoclip,1,1085,NaN,keyboard,knife,NaN,knife5-keyboard3.png
hycoclip,1,1086,NaN,airplane,knife,NaN,knife5-knife3.png
hycoclip,1,1087,NaN,clock,knife,NaN,knife5-oven2.png
hycoclip,1,1088,NaN,airplane,knife,NaN,knife5-truck3.png
hycoclip,1,1089,NaN,airplane,knife,NaN,knife6-airplane1.png
hycoclip,1,1090,NaN,airplane,knife,NaN,knife6-bicycle1.png
hycoclip,1,1091,NaN,chair,knife,NaN,knife6-bird1.png
hycoclip,1,1092,NaN,airplane,knife,NaN,knife6-boat3.png
hycoclip,1,1093,NaN,airplane,knife,NaN,knife6-bottle3.png
hycoclip,1,1094,NaN,airplane,knife,NaN,knife6-chair3.png
hycoclip,1,1095,NaN,clock,knife,NaN,knife6-clock2.png
hycoclip,1,1096,NaN,clock,knife,NaN,knife6-dog2.png
hycoclip,1,1097,NaN,keyboard,knife,NaN,knife6-knife1.png
hycoclip,1,1098,NaN,airplane,knife,NaN,knife6-oven3.png
hycoclip,1,1099,NaN,clock,knife,NaN,knife6-truck1.png
hycoclip,1,1100,NaN,clock,knife,NaN,knife7-airplane3.png
hycoclip,1,1101,NaN,clock,knife,NaN,knife7-bird3.png
hycoclip,1,1102,NaN,airplane,knife,NaN,knife7-boat3.png
hycoclip,1,1103,NaN,airplane,knife,NaN,knife7-bottle3.png
hycoclip,1,1104,NaN,clock,knife,NaN,knife7-car2.png
hycoclip,1,1105,NaN,clock,knife,NaN,knife7-chair2.png
hycoclip,1,1106,NaN,airplane,knife,NaN,knife7-elephant2.png
hycoclip,1,1107,NaN,airplane,knife,NaN,knife8-bicycle1.png
hycoclip,1,1108,NaN,airplane,knife,NaN,knife8-boat1.png
hycoclip,1,1109,NaN,airplane,knife,NaN,knife8-bottle3.png
hycoclip,1,1110,NaN,clock,knife,NaN,knife8-car2.png
hycoclip,1,1111,NaN,airplane,knife,NaN,knife8-cat2.png
hycoclip,1,1112,NaN,airplane,knife,NaN,knife8-truck3.png
hycoclip,1,1113,NaN,airplane,knife,NaN,knife9-airplane2.png
hycoclip,1,1114,NaN,airplane,knife,NaN,knife9-bear3.png
hycoclip,1,1115,NaN,airplane,knife,NaN,knife9-bicycle1.png
hycoclip,1,1116,NaN,car,knife,NaN,knife9-bird1.png
hycoclip,1,1117,NaN,airplane,knife,NaN,knife9-boat1.png
hycoclip,1,1118,NaN,clock,knife,NaN,knife9-bottle2.png
hycoclip,1,1119,NaN,knife,knife,NaN,knife9-chair1.png
hycoclip,1,1120,NaN,chair,knife,NaN,knife9-elephant2.png
hycoclip,1,1121,NaN,knife,oven,NaN,oven1-bird3.png
hycoclip,1,1122,NaN,airplane,oven,NaN,oven1-boat3.png
hycoclip,1,1123,NaN,airplane,oven,NaN,oven1-cat1.png
hycoclip,1,1124,NaN,clock,oven,NaN,oven1-clock3.png
hycoclip,1,1125,NaN,airplane,oven,NaN,oven1-dog3.png
hycoclip,1,1126,NaN,airplane,oven,NaN,oven10-airplane2.png
hycoclip,1,1127,NaN,airplane,oven,NaN,oven10-bear1.png
hycoclip,1,1128,NaN,airplane,oven,NaN,oven10-bicycle1.png
hycoclip,1,1129,NaN,clock,oven,NaN,oven10-boat2.png
hycoclip,1,1130,NaN,airplane,oven,NaN,oven10-cat2.png
hycoclip,1,1131,NaN,clock,oven,NaN,oven10-oven3.png
hycoclip,1,1132,NaN,airplane,oven,NaN,oven10-truck2.png
hycoclip,1,1133,NaN,oven,oven,NaN,oven2-bear3.png
hycoclip,1,1134,NaN,keyboard,oven,NaN,oven2-bicycle1.png
hycoclip,1,1135,NaN,chair,oven,NaN,oven2-bird2.png
hycoclip,1,1136,NaN,airplane,oven,NaN,oven2-boat3.png
hycoclip,1,1137,NaN,clock,oven,NaN,oven2-bottle1.png
hycoclip,1,1138,NaN,clock,oven,NaN,oven2-car1.png
hycoclip,1,1139,NaN,airplane,oven,NaN,oven2-chair1.png
hycoclip,1,1140,NaN,airplane,oven,NaN,oven2-dog3.png
hycoclip,1,1141,NaN,airplane,oven,NaN,oven2-oven3.png
hycoclip,1,1142,NaN,airplane,oven,NaN,oven2-truck3.png
hycoclip,1,1143,NaN,airplane,oven,NaN,oven3-airplane1.png
hycoclip,1,1144,NaN,airplane,oven,NaN,oven3-bear2.png
hycoclip,1,1145,NaN,airplane,oven,NaN,oven3-boat3.png
hycoclip,1,1146,NaN,airplane,oven,NaN,oven3-bottle3.png
hycoclip,1,1147,NaN,clock,oven,NaN,oven3-car2.png
hycoclip,1,1148,NaN,airplane,oven,NaN,oven3-cat2.png
hycoclip,1,1149,NaN,clock,oven,NaN,oven3-clock3.png
hycoclip,1,1150,NaN,clock,oven,NaN,oven3-elephant3.png
hycoclip,1,1151,NaN,clock,oven,NaN,oven3-knife1.png
hycoclip,1,1152,NaN,chair,oven,NaN,oven3-truck1.png
hycoclip,1,1153,NaN,airplane,oven,NaN,oven4-bicycle2.png
hycoclip,1,1154,NaN,clock,oven,NaN,oven4-bottle2.png
hycoclip,1,1155,NaN,clock,oven,NaN,oven4-car1.png
hycoclip,1,1156,NaN,knife,oven,NaN,oven4-chair1.png
hycoclip,1,1157,NaN,clock,oven,NaN,oven4-clock2.png
hycoclip,1,1158,NaN,clock,oven,NaN,oven4-dog1.png
hycoclip,1,1159,NaN,clock,oven,NaN,oven4-elephant3.png
hycoclip,1,1160,NaN,keyboard,oven,NaN,oven4-keyboard3.png
hycoclip,1,1161,NaN,keyboard,oven,NaN,oven4-knife2.png
hycoclip,1,1162,NaN,knife,oven,NaN,oven4-truck3.png
hycoclip,1,1163,NaN,clock,oven,NaN,oven5-airplane1.png
hycoclip,1,1164,NaN,airplane,oven,NaN,oven5-bicycle1.png
hycoclip,1,1165,NaN,chair,oven,NaN,oven5-bird1.png
hycoclip,1,1166,NaN,airplane,oven,NaN,oven5-bottle3.png
hycoclip,1,1167,NaN,airplane,oven,NaN,oven5-dog3.png
hycoclip,1,1168,NaN,chair,oven,NaN,oven5-elephant1.png
hycoclip,1,1169,NaN,clock,oven,NaN,oven5-keyboard2.png
hycoclip,1,1170,NaN,airplane,oven,NaN,oven6-airplane3.png
hycoclip,1,1171,NaN,airplane,oven,NaN,oven6-bear2.png
hycoclip,1,1172,NaN,clock,oven,NaN,oven6-bicycle1.png
hycoclip,1,1173,NaN,airplane,oven,NaN,oven6-bird1.png
hycoclip,1,1174,NaN,airplane,oven,NaN,oven6-chair3.png
hycoclip,1,1175,NaN,airplane,oven,NaN,oven6-elephant2.png
hycoclip,1,1176,NaN,airplane,oven,NaN,oven6-knife3.png
hycoclip,1,1177,NaN,airplane,oven,NaN,oven6-oven3.png
hycoclip,1,1178,NaN,clock,oven,NaN,oven6-truck1.png
hycoclip,1,1179,NaN,clock,oven,NaN,oven7-bottle1.png
hycoclip,1,1180,NaN,oven,oven,NaN,oven7-car3.png
hycoclip,1,1181,NaN,airplane,oven,NaN,oven7-cat1.png
hycoclip,1,1182,NaN,clock,oven,NaN,oven7-clock2.png
hycoclip,1,1183,NaN,clock,oven,NaN,oven7-dog2.png
hycoclip,1,1184,NaN,chair,oven,NaN,oven7-elephant1.png
hycoclip,1,1185,NaN,keyboard,oven,NaN,oven7-keyboard1.png
hycoclip,1,1186,NaN,airplane,oven,NaN,oven7-oven1.png
hycoclip,1,1187,NaN,airplane,oven,NaN,oven8-cat3.png
hycoclip,1,1188,NaN,airplane,oven,NaN,oven8-chair1.png
hycoclip,1,1189,NaN,keyboard,oven,NaN,oven8-keyboard3.png
hycoclip,1,1190,NaN,keyboard,oven,NaN,oven8-knife2.png
hycoclip,1,1191,NaN,airplane,oven,NaN,oven9-airplane2.png
hycoclip,1,1192,NaN,chair,oven,NaN,oven9-bear2.png
hycoclip,1,1193,NaN,clock,oven,NaN,oven9-bird3.png
hycoclip,1,1194,NaN,clock,oven,NaN,oven9-boat2.png
hycoclip,1,1195,NaN,clock,oven,NaN,oven9-car2.png
hycoclip,1,1196,NaN,car,oven,NaN,oven9-chair1.png
hycoclip,1,1197,NaN,clock,oven,NaN,oven9-clock2.png
hycoclip,1,1198,NaN,keyboard,oven,NaN,oven9-keyboard1.png
hycoclip,1,1199,NaN,keyboard,oven,NaN,oven9-knife3.png
hycoclip,1,1200,NaN,keyboard,oven,NaN,oven9-oven1.png
hycoclip,1,1201,NaN,airplane,truck,NaN,truck1-bear1.png
hycoclip,1,1202,NaN,clock,truck,NaN,truck1-bicycle3.png
hycoclip,1,1203,NaN,keyboard,truck,NaN,truck1-bird1.png
hycoclip,1,1204,NaN,airplane,truck,NaN,truck1-car3.png
hycoclip,1,1205,NaN,airplane,truck,NaN,truck1-cat1.png
hycoclip,1,1206,NaN,clock,truck,NaN,truck1-chair2.png
hycoclip,1,1207,NaN,clock,truck,NaN,truck1-clock3.png
hycoclip,1,1208,NaN,oven,truck,NaN,truck1-dog1.png
hycoclip,1,1209,NaN,airplane,truck,NaN,truck1-knife1.png
hycoclip,1,1210,NaN,airplane,truck,NaN,truck10-airplane1.png
hycoclip,1,1211,NaN,airplane,truck,NaN,truck10-bicycle1.png
hycoclip,1,1212,NaN,airplane,truck,NaN,truck10-car3.png
hycoclip,1,1213,NaN,clock,truck,NaN,truck10-clock1.png
hycoclip,1,1214,NaN,clock,truck,NaN,truck10-elephant3.png
hycoclip,1,1215,NaN,airplane,truck,NaN,truck10-truck3.png
hycoclip,1,1216,NaN,clock,truck,NaN,truck2-airplane3.png
hycoclip,1,1217,NaN,clock,truck,NaN,truck2-bicycle2.png
hycoclip,1,1218,NaN,airplane,truck,NaN,truck2-bird2.png
hycoclip,1,1219,NaN,airplane,truck,NaN,truck2-boat3.png
hycoclip,1,1220,NaN,clock,truck,NaN,truck2-bottle3.png
hycoclip,1,1221,NaN,oven,truck,NaN,truck2-car3.png
hycoclip,1,1222,NaN,car,truck,NaN,truck2-chair1.png
hycoclip,1,1223,NaN,clock,truck,NaN,truck2-clock1.png
hycoclip,1,1224,NaN,airplane,truck,NaN,truck2-elephant1.png
hycoclip,1,1225,NaN,keyboard,truck,NaN,truck2-keyboard1.png
hycoclip,1,1226,NaN,clock,truck,NaN,truck2-oven3.png
hycoclip,1,1227,NaN,oven,truck,NaN,truck3-bear3.png
hycoclip,1,1228,NaN,airplane,truck,NaN,truck3-bicycle1.png
hycoclip,1,1229,NaN,clock,truck,NaN,truck3-bird2.png
hycoclip,1,1230,NaN,clock,truck,NaN,truck3-car3.png
hycoclip,1,1231,NaN,airplane,truck,NaN,truck3-cat1.png
hycoclip,1,1232,NaN,clock,truck,NaN,truck3-chair2.png
hycoclip,1,1233,NaN,clock,truck,NaN,truck3-clock3.png
hycoclip,1,1234,NaN,airplane,truck,NaN,truck3-dog3.png
hycoclip,1,1235,NaN,clock,truck,NaN,truck3-keyboard3.png
hycoclip,1,1236,NaN,clock,truck,NaN,truck3-knife2.png
hycoclip,1,1237,NaN,clock,truck,NaN,truck3-oven2.png
hycoclip,1,1238,NaN,clock,truck,NaN,truck4-airplane3.png
hycoclip,1,1239,NaN,oven,truck,NaN,truck4-bear1.png
hycoclip,1,1240,NaN,airplane,truck,NaN,truck4-boat3.png
hycoclip,1,1241,NaN,clock,truck,NaN,truck4-bottle2.png
hycoclip,1,1242,NaN,clock,truck,NaN,truck4-knife1.png
hycoclip,1,1243,NaN,clock,truck,NaN,truck4-oven2.png
hycoclip,1,1244,NaN,airplane,truck,NaN,truck5-airplane2.png
hycoclip,1,1245,NaN,clock,truck,NaN,truck5-bird2.png
hycoclip,1,1246,NaN,clock,truck,NaN,truck5-car1.png
hycoclip,1,1247,NaN,airplane,truck,NaN,truck5-cat3.png
hycoclip,1,1248,NaN,airplane,truck,NaN,truck5-dog3.png
hycoclip,1,1249,NaN,keyboard,truck,NaN,truck5-keyboard1.png
hycoclip,1,1250,NaN,keyboard,truck,NaN,truck5-knife3.png
hycoclip,1,1251,NaN,clock,truck,NaN,truck5-truck1.png
hycoclip,1,1252,NaN,airplane,truck,NaN,truck6-bear2.png
hycoclip,1,1253,NaN,airplane,truck,NaN,truck6-bicycle1.png
hycoclip,1,1254,NaN,airplane,truck,NaN,truck6-boat2.png
hycoclip,1,1255,NaN,clock,truck,NaN,truck6-bottle3.png
hycoclip,1,1256,NaN,airplane,truck,NaN,truck6-cat2.png
hycoclip,1,1257,NaN,clock,truck,NaN,truck6-clock2.png
hycoclip,1,1258,NaN,clock,truck,NaN,truck6-dog2.png
hycoclip,1,1259,NaN,airplane,truck,NaN,truck6-knife2.png
hycoclip,1,1260,NaN,airplane,truck,NaN,truck6-oven3.png
hycoclip,1,1261,NaN,airplane,truck,NaN,truck6-truck2.png
hycoclip,1,1262,NaN,airplane,truck,NaN,truck7-bear2.png
hycoclip,1,1263,NaN,airplane,truck,NaN,truck7-bird2.png
hycoclip,1,1264,NaN,airplane,truck,NaN,truck7-boat1.png
hycoclip,1,1265,NaN,keyboard,truck,NaN,truck7-chair2.png
hycoclip,1,1266,NaN,chair,truck,NaN,truck7-elephant2.png
hycoclip,1,1267,NaN,keyboard,truck,NaN,truck7-keyboard3.png
hycoclip,1,1268,NaN,clock,truck,NaN,truck7-oven2.png
hycoclip,1,1269,NaN,airplane,truck,NaN,truck7-truck2.png
hycoclip,1,1270,NaN,airplane,truck,NaN,truck8-bottle2.png
hycoclip,1,1271,NaN,airplane,truck,NaN,truck8-cat2.png
hycoclip,1,1272,NaN,airplane,truck,NaN,truck8-dog3.png
hycoclip,1,1273,NaN,airplane,truck,NaN,truck8-elephant1.png
hycoclip,1,1274,NaN,clock,truck,NaN,truck8-keyboard2.png
hycoclip,1,1275,NaN,airplane,truck,NaN,truck9-airplane2.png
hycoclip,1,1276,NaN,airplane,truck,NaN,truck9-boat3.png
hycoclip,1,1277,NaN,truck,truck,NaN,truck9-bottle2.png
hycoclip,1,1278,NaN,airplane,truck,NaN,truck9-chair3.png
hycoclip,1,1279,NaN,airplane,truck,NaN,truck9-elephant1.png
hycoclip,1,1280,NaN,airplane,truck,NaN,truck9-truck3.png
